,Time,header.seq,header.stamp.secs,header.stamp.nsecs,header.frame_id,orientation.x,orientation.y,orientation.z,orientation.w,orientation_covariance_0,orientation_covariance_1,orientation_covariance_2,orientation_covariance_3,orientation_covariance_4,orientation_covariance_5,orientation_covariance_6,orientation_covariance_7,orientation_covariance_8,angular_velocity.x,angular_velocity.y,angular_velocity.z,angular_velocity_covariance_0,angular_velocity_covariance_1,angular_velocity_covariance_2,angular_velocity_covariance_3,angular_velocity_covariance_4,angular_velocity_covariance_5,angular_velocity_covariance_6,angular_velocity_covariance_7,angular_velocity_covariance_8,linear_acceleration.x,linear_acceleration.y,linear_acceleration.z,linear_acceleration_covariance_0,linear_acceleration_covariance_1,linear_acceleration_covariance_2,linear_acceleration_covariance_3,linear_acceleration_covariance_4,linear_acceleration_covariance_5,linear_acceleration_covariance_6,linear_acceleration_covariance_7,linear_acceleration_covariance_8
0,1690899086.4347854,530005,1690899086,434588432,livox_frame,0.0,0.0,0.0,0.0,0.0,0.0,0.0,0.0,0.0,0.0,0.0,0.0,0.0,0.005997709929943,-0.007360185496509,-0.0050331279635429,0.0,0.0,0.0,0.0,0.0,0.0,0.0,0.0,0.0,-0.1128175631165504,0.0306615252047777,0.9760754108428956,0.0,0.0,0.0,0.0,0.0,0.0,0.0,0.0,0.0
1,1690899086.440637,530006,1690899086,440245867,livox_frame,0.0,0.0,0.0,0.0,0.0,0.0,0.0,0.0,0.0,0.0,0.0,0.0,0.0,0.0123892948031425,-0.0094907144084572,-0.0103594437241554,0.0,0.0,0.0,0.0,0.0,0.0,0.0,0.0,0.0,-0.0993898287415504,0.0255345720797777,0.9855968952178956,0.0,0.0,0.0,0.0,0.0,0.0,0.0,0.0,0.0
2,1690899086.4447656,530007,1690899086,444532156,livox_frame,0.0,0.0,0.0,0.0,0.0,0.0,0.0,0.0,0.0,0.0,0.0,0.0,0.0,0.0113240331411361,-0.0105559788644313,-0.0114247128367424,0.0,0.0,0.0,0.0,0.0,0.0,0.0,0.0,0.0,-0.0886476412415504,0.0213841814547777,0.9946300983428956,0.0,0.0,0.0,0.0,0.0,0.0,0.0,0.0,0.0
3,1690899086.450967,530008,1690899086,450156450,livox_frame,0.0,0.0,0.0,0.0,0.0,0.0,0.0,0.0,0.0,0.0,0.0,0.0,0.0,0.0113240331411361,-0.0030991276726126,-0.0082289204001426,0.0,0.0,0.0,0.0,0.0,0.0,0.0,0.0,0.0,-0.0991456881165504,0.0248021502047777,0.9973156452178956,0.0,0.0,0.0,0.0,0.0,0.0,0.0,0.0,0.0
4,1690899086.4547546,530009,1690899086,454552650,livox_frame,0.0,0.0,0.0,0.0,0.0,0.0,0.0,0.0,0.0,0.0,0.0,0.0,0.0,0.0070629753172397,0.004357723519206,-0.0039678588509559,0.0,0.0,0.0,0.0,0.0,0.0,0.0,0.0,0.0,-0.1125734224915504,0.0296849627047777,1.0039074420928955,0.0,0.0,0.0,0.0,0.0,0.0,0.0,0.0,0.0
5,1690899086.460584,530010,1690899086,460323334,livox_frame,0.0,0.0,0.0,0.0,0.0,0.0,0.0,0.0,0.0,0.0,0.0,0.0,0.0,0.00067138671875,0.0011619310826063,-0.0071636512875556,0.0,0.0,0.0,0.0,0.0,0.0,0.0,0.0,0.0,-0.1235597506165504,0.0291966814547777,0.9917004108428956,0.0,0.0,0.0,0.0,0.0,0.0,0.0,0.0,0.0
6,1690899086.4647236,530011,1690899086,464534283,livox_frame,0.0,0.0,0.0,0.0,0.0,0.0,0.0,0.0,0.0,0.0,0.0,0.0,0.0,0.00067138671875,0.0022271946072578,-0.0071636512875556,0.0,0.0,0.0,0.0,0.0,0.0,0.0,0.0,0.0,-0.125757023692131,0.0311498064547777,0.9672863483428956,0.0,0.0,0.0,0.0,0.0,0.0,0.0,0.0,0.0
7,1690899086.470538,530012,1690899086,470208168,livox_frame,0.0,0.0,0.0,0.0,0.0,0.0,0.0,0.0,0.0,0.0,0.0,0.0,0.0,0.0091935023665428,0.0011619310826063,-0.0071636512875556,0.0,0.0,0.0,0.0,0.0,0.0,0.0,0.0,0.0,-0.1130617037415504,0.0306615252047777,0.9724133014678956,0.0,0.0,0.0,0.0,0.0,0.0,0.0,0.0,0.0
8,1690899086.474707,530013,1690899086,474489450,livox_frame,0.0,0.0,0.0,0.0,0.0,0.0,0.0,0.0,0.0,0.0,0.0,0.0,0.0,0.0145198255777359,-0.007360185496509,-0.0082289204001426,0.0,0.0,0.0,0.0,0.0,0.0,0.0,0.0,0.0,-0.0949952974915504,0.0255345720797777,0.9821789264678956,0.0,0.0,0.0,0.0,0.0,0.0,0.0,0.0,0.0
9,1690899086.4805892,530014,1690899086,480247498,livox_frame,0.0,0.0,0.0,0.0,0.0,0.0,0.0,0.0,0.0,0.0,0.0,0.0,0.0,0.0113240331411361,-0.0116212433204054,-0.009294182062149,0.0,0.0,0.0,0.0,0.0,0.0,0.0,0.0,0.0,-0.0932863131165504,0.0260228533297777,0.9921886920928956,0.0,0.0,0.0,0.0,0.0,0.0,0.0,0.0,0.0
10,1690899086.4847014,530015,1690899086,484475613,livox_frame,0.0,0.0,0.0,0.0,0.0,0.0,0.0,0.0,0.0,0.0,0.0,0.0,0.0,0.0081282369792461,-0.0105559788644313,-0.0060983896255493,0.0,0.0,0.0,0.0,0.0,0.0,0.0,0.0,0.0,-0.0976808443665504,0.0279759783297777,1.0004894733428955,0.0,0.0,0.0,0.0,0.0,0.0,0.0,0.0,0.0
11,1690899086.4906063,530016,1690899086,490318775,livox_frame,0.0,0.0,0.0,0.0,0.0,0.0,0.0,0.0,0.0,0.0,0.0,0.0,0.0,0.0038671791553497,-0.0116212433204054,-0.0060983896255493,0.0,0.0,0.0,0.0,0.0,0.0,0.0,0.0,0.0,-0.1120851412415504,0.0287084002047777,1.0053722858428955,0.0,0.0,0.0,0.0,0.0,0.0,0.0,0.0,0.0
12,1690899086.4977124,530017,1690899086,494601488,livox_frame,0.0,0.0,0.0,0.0,0.0,0.0,0.0,0.0,0.0,0.0,0.0,0.0,0.0,-0.0003938786685466,-0.0094907144084572,-0.0071636512875556,0.0,0.0,0.0,0.0,0.0,0.0,0.0,0.0,0.0,-0.1230714693665504,0.0326146520674228,0.9924328327178956,0.0,0.0,0.0,0.0,0.0,0.0,0.0,0.0,0.0
13,1690899086.5007043,530018,1690899086,500270128,livox_frame,0.0,0.0,0.0,0.0,0.0,0.0,0.0,0.0,0.0,0.0,0.0,0.0,0.0,0.0028019174933433,-0.0020338632166385,-0.0071636512875556,0.0,0.0,0.0,0.0,0.0,0.0,0.0,0.0,0.0,-0.1184327974915504,0.0340794958174228,0.9702160358428956,0.0,0.0,0.0,0.0,0.0,0.0,0.0,0.0,0.0
14,1690899086.5047886,530019,1690899086,504495382,livox_frame,0.0,0.0,0.0,0.0,0.0,0.0,0.0,0.0,0.0,0.0,0.0,0.0,0.0,0.0091935023665428,0.0032924599945545,-0.0050331279635429,0.0,0.0,0.0,0.0,0.0,0.0,0.0,0.0,0.0,-0.1057374849915504,0.0284642595797777,0.9768078327178956,0.0,0.0,0.0,0.0,0.0,0.0,0.0,0.0,0.0
15,1690899086.51038,530020,1690899086,510191917,livox_frame,0.0,0.0,0.0,0.0,0.0,0.0,0.0,0.0,0.0,0.0,0.0,0.0,0.0,0.0134545601904392,0.004357723519206,-0.009294182062149,0.0,0.0,0.0,0.0,0.0,0.0,0.0,0.0,0.0,-0.0923097506165504,0.0265111345797777,0.9870617389678956,0.0,0.0,0.0,0.0,0.0,0.0,0.0,0.0,0.0
16,1690899086.514752,530021,1690899086,514554024,livox_frame,0.0,0.0,0.0,0.0,0.0,0.0,0.0,0.0,0.0,0.0,0.0,0.0,0.0,0.0113240331411361,9.666569530963898e-05,-0.009294182062149,0.0,0.0,0.0,0.0,0.0,0.0,0.0,0.0,0.0,-0.0935304537415504,0.0269994158297777,0.9899914264678956,0.0,0.0,0.0,0.0,0.0,0.0,0.0,0.0,0.0
17,1690899086.520543,530022,1690899086,520318747,livox_frame,0.0,0.0,0.0,0.0,0.0,0.0,0.0,0.0,0.0,0.0,0.0,0.0,0.0,0.0070629753172397,-0.0009685987606644,-0.0050331279635429,0.0,0.0,0.0,0.0,0.0,0.0,0.0,0.0,0.0,-0.0998781099915504,0.0277318377047777,0.9982922077178956,0.0,0.0,0.0,0.0,0.0,0.0,0.0,0.0,0.0
18,1690899086.5248573,530023,1690899086,524614811,livox_frame,0.0,0.0,0.0,0.0,0.0,0.0,0.0,0.0,0.0,0.0,0.0,0.0,0.0,0.0049324445426464,-0.0052296565845608,-0.0082289204001426,0.0,0.0,0.0,0.0,0.0,0.0,0.0,0.0,0.0,-0.1172120943665504,0.0296849627047777,0.9960949420928956,0.0,0.0,0.0,0.0,0.0,0.0,0.0,0.0,0.0
19,1690899086.5305655,530024,1690899086,530231476,livox_frame,0.0,0.0,0.0,0.0,0.0,0.0,0.0,0.0,0.0,0.0,0.0,0.0,0.0,0.00067138671875,-0.0105559788644313,-0.0082289204001426,0.0,0.0,0.0,0.0,0.0,0.0,0.0,0.0,0.0,-0.1233156099915504,0.0357884801924228,0.9855968952178956,0.0,0.0,0.0,0.0,0.0,0.0,0.0,0.0,0.0
20,1690899086.5345163,530025,1690899086,534329176,livox_frame,0.0,0.0,0.0,0.0,0.0,0.0,0.0,0.0,0.0,0.0,0.0,0.0,0.0,0.0049324445426464,-0.0084254499524831,-0.0060983896255493,0.0,0.0,0.0,0.0,0.0,0.0,0.0,0.0,0.0,-0.1152589693665504,0.0318822301924228,0.9731457233428956,0.0,0.0,0.0,0.0,0.0,0.0,0.0,0.0,0.0
21,1690899086.5406013,530026,1690899086,540280104,livox_frame,0.0,0.0,0.0,0.0,0.0,0.0,0.0,0.0,0.0,0.0,0.0,0.0,0.0,0.0102587677538394,-0.0084254499524831,-0.0071636512875556,0.0,0.0,0.0,0.0,0.0,0.0,0.0,0.0,0.0,-0.1059816256165504,0.0272435564547777,0.9787609577178956,0.0,0.0,0.0,0.0,0.0,0.0,0.0,0.0,0.0
22,1690899086.5447376,530027,1690899086,544476509,livox_frame,0.0,0.0,0.0,0.0,0.0,0.0,0.0,0.0,0.0,0.0,0.0,0.0,0.0,0.0134545601904392,-0.0094907144084572,-0.0114247128367424,0.0,0.0,0.0,0.0,0.0,0.0,0.0,0.0,0.0,-0.0893800631165504,0.0272435564547777,0.9936535358428956,0.0,0.0,0.0,0.0,0.0,0.0,0.0,0.0,0.0
23,1690899086.5505536,530028,1690899086,550319672,livox_frame,0.0,0.0,0.0,0.0,0.0,0.0,0.0,0.0,0.0,0.0,0.0,0.0,0.0,0.0102587677538394,-0.0020338632166385,-0.0082289204001426,0.0,0.0,0.0,0.0,0.0,0.0,0.0,0.0,0.0,-0.0918214693665504,0.0245580095797777,0.9936535358428956,0.0,0.0,0.0,0.0,0.0,0.0,0.0,0.0,0.0
24,1690899086.5547934,530029,1690899086,554553032,livox_frame,0.0,0.0,0.0,0.0,0.0,0.0,0.0,0.0,0.0,0.0,0.0,0.0,0.0,0.0081282369792461,0.0054229889065027,-0.0082289204001426,0.0,0.0,0.0,0.0,0.0,0.0,0.0,0.0,0.0,-0.1037843599915504,0.0233373064547777,1.0031750202178955,0.0,0.0,0.0,0.0,0.0,0.0,0.0,0.0,0.0
25,1690899086.560531,530030,1690899086,560319901,livox_frame,0.0,0.0,0.0,0.0,0.0,0.0,0.0,0.0,0.0,0.0,0.0,0.0,0.0,0.00067138671875,0.0054229889065027,-0.0071636512875556,0.0,0.0,0.0,0.0,0.0,0.0,0.0,0.0,0.0,-0.1203859224915504,0.0309056658297777,0.9990246295928956,0.0,0.0,0.0,0.0,0.0,0.0,0.0,0.0,0.0
26,1690899086.564824,530031,1690899086,564625978,livox_frame,0.0,0.0,0.0,0.0,0.0,0.0,0.0,0.0,0.0,0.0,0.0,0.0,0.0,-0.0025244057178497,0.0032924599945545,-0.0050331279635429,0.0,0.0,0.0,0.0,0.0,0.0,0.0,0.0,0.0,-0.127466008067131,0.0321263708174228,0.9777843952178956,0.0,0.0,0.0,0.0,0.0,0.0,0.0,0.0,0.0
27,1690899086.5703514,530032,1690899086,570147038,livox_frame,0.0,0.0,0.0,0.0,0.0,0.0,0.0,0.0,0.0,0.0,0.0,0.0,0.0,0.0049324445426464,0.0022271946072578,-0.0060983896255493,0.0,0.0,0.0,0.0,0.0,0.0,0.0,0.0,0.0,-0.1159913912415504,0.0260228533297777,0.9694836139678956,0.0,0.0,0.0,0.0,0.0,0.0,0.0,0.0,0.0
28,1690899086.5746856,530033,1690899086,574487925,livox_frame,0.0,0.0,0.0,0.0,0.0,0.0,0.0,0.0,0.0,0.0,0.0,0.0,0.0,0.0113240331411361,-0.0041643921285867,-0.0060983896255493,0.0,0.0,0.0,0.0,0.0,0.0,0.0,0.0,0.0,-0.1032960787415504,0.0267552752047777,0.9758312702178956,0.0,0.0,0.0,0.0,0.0,0.0,0.0,0.0,0.0
29,1690899086.580395,530034,1690899086,580157518,livox_frame,0.0,0.0,0.0,0.0,0.0,0.0,0.0,0.0,0.0,0.0,0.0,0.0,0.0,0.0134545601904392,-0.0105559788644313,-0.0114247128367424,0.0,0.0,0.0,0.0,0.0,0.0,0.0,0.0,0.0,-0.0945070162415504,0.0272435564547777,0.9892590045928956,0.0,0.0,0.0,0.0,0.0,0.0,0.0,0.0,0.0
30,1690899086.5846756,530035,1690899086,584463835,livox_frame,0.0,0.0,0.0,0.0,0.0,0.0,0.0,0.0,0.0,0.0,0.0,0.0,0.0,0.0102587677538394,-0.0116212433204054,-0.009294182062149,0.0,0.0,0.0,0.0,0.0,0.0,0.0,0.0,0.0,-0.0940187349915504,0.0208959002047777,0.9904797077178956,0.0,0.0,0.0,0.0,0.0,0.0,0.0,0.0,0.0
31,1690899086.5905766,530036,1690899086,590320110,livox_frame,0.0,0.0,0.0,0.0,0.0,0.0,0.0,0.0,0.0,0.0,0.0,0.0,0.0,0.0049324445426464,-0.0094907144084572,-0.0071636512875556,0.0,0.0,0.0,0.0,0.0,0.0,0.0,0.0,0.0,-0.1042726412415504,0.0250462908297777,1.0075695514678955,0.0,0.0,0.0,0.0,0.0,0.0,0.0,0.0,0.0
32,1690899086.5950408,530037,1690899086,594746828,livox_frame,0.0,0.0,0.0,0.0,0.0,0.0,0.0,0.0,0.0,0.0,0.0,0.0,0.0,0.0017366521060466,-0.0094907144084572,-0.009294182062149,0.0,0.0,0.0,0.0,0.0,0.0,0.0,0.0,0.0,-0.1213624849915504,0.0331029333174228,1.0031750202178955,0.0,0.0,0.0,0.0,0.0,0.0,0.0,0.0,0.0
33,1690899086.600558,530038,1690899086,600274324,livox_frame,0.0,0.0,0.0,0.0,0.0,0.0,0.0,0.0,0.0,0.0,0.0,0.0,0.0,0.0038671791553497,-0.0020338632166385,-0.0071636512875556,0.0,0.0,0.0,0.0,0.0,0.0,0.0,0.0,0.0,-0.1238038912415504,0.0301732439547777,0.9729015827178956,0.0,0.0,0.0,0.0,0.0,0.0,0.0,0.0,0.0
34,1690899086.6048465,530039,1690899086,604569912,livox_frame,0.0,0.0,0.0,0.0,0.0,0.0,0.0,0.0,0.0,0.0,0.0,0.0,0.0,0.005997709929943,0.004357723519206,-0.0039678588509559,0.0,0.0,0.0,0.0,0.0,0.0,0.0,0.0,0.0,-0.1120851412415504,0.0267552752047777,0.9738781452178956,0.0,0.0,0.0,0.0,0.0,0.0,0.0,0.0,0.0
35,1690899086.6103806,530040,1690899086,610188007,livox_frame,0.0,0.0,0.0,0.0,0.0,0.0,0.0,0.0,0.0,0.0,0.0,0.0,0.0,0.0123892948031425,0.0032924599945545,-0.0082289204001426,0.0,0.0,0.0,0.0,0.0,0.0,0.0,0.0,0.0,-0.0996339693665504,0.0306615252047777,0.9855968952178956,0.0,0.0,0.0,0.0,0.0,0.0,0.0,0.0,0.0
36,1690899086.6146526,530041,1690899086,614452839,livox_frame,0.0,0.0,0.0,0.0,0.0,0.0,0.0,0.0,0.0,0.0,0.0,0.0,0.0,0.0134545601904392,0.0022271946072578,-0.009294182062149,0.0,0.0,0.0,0.0,0.0,0.0,0.0,0.0,0.0,-0.0947511568665504,0.0257787127047777,0.9821789264678956,0.0,0.0,0.0,0.0,0.0,0.0,0.0,0.0,0.0
37,1690899086.6205404,530042,1690899086,620319843,livox_frame,0.0,0.0,0.0,0.0,0.0,0.0,0.0,0.0,0.0,0.0,0.0,0.0,0.0,0.0102587677538394,-0.0009685987606644,-0.0082289204001426,0.0,0.0,0.0,0.0,0.0,0.0,0.0,0.0,0.0,-0.0949952974915504,0.0252904314547777,0.9946300983428956,0.0,0.0,0.0,0.0,0.0,0.0,0.0,0.0,0.0
38,1690899086.624884,530043,1690899086,624648333,livox_frame,0.0,0.0,0.0,0.0,0.0,0.0,0.0,0.0,0.0,0.0,0.0,0.0,0.0,0.0070629753172397,-0.0041643921285867,-0.0082289204001426,0.0,0.0,0.0,0.0,0.0,0.0,0.0,0.0,0.0,-0.1123292818665504,0.0311498064547777,0.9995129108428956,0.0,0.0,0.0,0.0,0.0,0.0,0.0,0.0,0.0
39,1690899086.6303685,530044,1690899086,630154133,livox_frame,0.0,0.0,0.0,0.0,0.0,0.0,0.0,0.0,0.0,0.0,0.0,0.0,0.0,0.0028019174933433,-0.0116212433204054,-0.0060983896255493,0.0,0.0,0.0,0.0,0.0,0.0,0.0,0.0,0.0,-0.1213624849915504,0.0367650426924228,0.9941418170928956,0.0,0.0,0.0,0.0,0.0,0.0,0.0,0.0,0.0
40,1690899086.6346726,530045,1690899086,634493351,livox_frame,0.0,0.0,0.0,0.0,0.0,0.0,0.0,0.0,0.0,0.0,0.0,0.0,0.0,0.00067138671875,-0.0116212433204054,-0.0060983896255493,0.0,0.0,0.0,0.0,0.0,0.0,0.0,0.0,0.0,-0.1201417818665504,0.0299291033297777,0.9699718952178956,0.0,0.0,0.0,0.0,0.0,0.0,0.0,0.0,0.0
41,1690899086.64053,530046,1690899086,640279293,livox_frame,0.0,0.0,0.0,0.0,0.0,0.0,0.0,0.0,0.0,0.0,0.0,0.0,0.0,0.0070629753172397,-0.0084254499524831,-0.0060983896255493,0.0,0.0,0.0,0.0,0.0,0.0,0.0,0.0,0.0,-0.1086671724915504,0.0321263708174228,0.9797375202178956,0.0,0.0,0.0,0.0,0.0,0.0,0.0,0.0,0.0
42,1690899086.6447828,530047,1690899086,644515514,livox_frame,0.0,0.0,0.0,0.0,0.0,0.0,0.0,0.0,0.0,0.0,0.0,0.0,0.0,0.0123892948031425,-0.0094907144084572,-0.0114247128367424,0.0,0.0,0.0,0.0,0.0,0.0,0.0,0.0,0.0,-0.0942628756165504,0.0306615252047777,0.9882824420928956,0.0,0.0,0.0,0.0,0.0,0.0,0.0,0.0,0.0
43,1690899086.650557,530048,1690899086,650213718,livox_frame,0.0,0.0,0.0,0.0,0.0,0.0,0.0,0.0,0.0,0.0,0.0,0.0,0.0,0.0134545601904392,-0.0041643921285867,-0.0103594437241554,0.0,0.0,0.0,0.0,0.0,0.0,0.0,0.0,0.0,-0.0862062349915504,0.0216283220797777,0.9892590045928956,0.0,0.0,0.0,0.0,0.0,0.0,0.0,0.0,0.0
44,1690899086.6547654,530049,1690899086,654480934,livox_frame,0.0,0.0,0.0,0.0,0.0,0.0,0.0,0.0,0.0,0.0,0.0,0.0,0.0,0.0081282369792461,0.0064882524311542,-0.0060983896255493,0.0,0.0,0.0,0.0,0.0,0.0,0.0,0.0,0.0,-0.0984132662415504,0.0252904314547777,0.9990246295928956,0.0,0.0,0.0,0.0,0.0,0.0,0.0,0.0,0.0
45,1690899086.660521,530050,1690899086,660277367,livox_frame,0.0,0.0,0.0,0.0,0.0,0.0,0.0,0.0,0.0,0.0,0.0,0.0,0.0,0.0038671791553497,0.004357723519206,-0.0050331279635429,0.0,0.0,0.0,0.0,0.0,0.0,0.0,0.0,0.0,-0.1152589693665504,0.0335912145674228,1.0075695514678955,0.0,0.0,0.0,0.0,0.0,0.0,0.0,0.0,0.0
46,1690899086.6646864,530051,1690899086,664471388,livox_frame,0.0,0.0,0.0,0.0,0.0,0.0,0.0,0.0,0.0,0.0,0.0,0.0,0.0,-0.0014591440558433,0.0022271946072578,-0.0039678588509559,0.0,0.0,0.0,0.0,0.0,0.0,0.0,0.0,0.0,-0.1245363131165504,0.0311498064547777,0.9802258014678956,0.0,0.0,0.0,0.0,0.0,0.0,0.0,0.0,0.0
47,1690899086.6705277,530052,1690899086,670320272,livox_frame,0.0,0.0,0.0,0.0,0.0,0.0,0.0,0.0,0.0,0.0,0.0,0.0,0.0,0.0028019174933433,0.0011619310826063,-0.0050331279635429,0.0,0.0,0.0,0.0,0.0,0.0,0.0,0.0,0.0,-0.1223390474915504,0.0299291033297777,0.9711925983428956,0.0,0.0,0.0,0.0,0.0,0.0,0.0,0.0,0.0
48,1690899086.6747794,530053,1690899086,674570322,livox_frame,0.0,0.0,0.0,0.0,0.0,0.0,0.0,0.0,0.0,0.0,0.0,0.0,0.0,0.0070629753172397,-0.0030991276726126,-0.0050331279635429,0.0,0.0,0.0,0.0,0.0,0.0,0.0,0.0,0.0,-0.1096437349915504,0.0323705114424228,0.9758312702178956,0.0,0.0,0.0,0.0,0.0,0.0,0.0,0.0,0.0
49,1690899086.6808145,530054,1690899086,680215120,livox_frame,0.0,0.0,0.0,0.0,0.0,0.0,0.0,0.0,0.0,0.0,0.0,0.0,0.0,0.0123892948031425,-0.0094907144084572,-0.0082289204001426,0.0,0.0,0.0,0.0,0.0,0.0,0.0,0.0,0.0,-0.0927980318665504,0.0272435564547777,0.9831554889678956,0.0,0.0,0.0,0.0,0.0,0.0,0.0,0.0,0.0
50,1690899086.684723,530055,1690899086,684500933,livox_frame,0.0,0.0,0.0,0.0,0.0,0.0,0.0,0.0,0.0,0.0,0.0,0.0,0.0,0.0123892948031425,-0.0116212433204054,-0.0103594437241554,0.0,0.0,0.0,0.0,0.0,0.0,0.0,0.0,0.0,-0.0913331881165504,0.0204076189547777,0.9877941608428956,0.0,0.0,0.0,0.0,0.0,0.0,0.0,0.0,0.0
51,1690899086.6903708,530056,1690899086,690185547,livox_frame,0.0,0.0,0.0,0.0,0.0,0.0,0.0,0.0,0.0,0.0,0.0,0.0,0.0,0.0102587677538394,-0.0084254499524831,-0.0071636512875556,0.0,0.0,0.0,0.0,0.0,0.0,0.0,0.0,0.0,-0.0984132662415504,0.0282201189547777,1.0075695514678955,0.0,0.0,0.0,0.0,0.0,0.0,0.0,0.0,0.0
52,1690899086.6947677,530057,1690899086,694544077,livox_frame,0.0,0.0,0.0,0.0,0.0,0.0,0.0,0.0,0.0,0.0,0.0,0.0,0.0,0.0028019174933433,-0.0105559788644313,-0.0060983896255493,0.0,0.0,0.0,0.0,0.0,0.0,0.0,0.0,0.0,-0.1130617037415504,0.0321263708174228,1.0078136920928955,0.0,0.0,0.0,0.0,0.0,0.0,0.0,0.0,0.0
53,1690899086.7005422,530058,1690899086,700320005,livox_frame,0.0,0.0,0.0,0.0,0.0,0.0,0.0,0.0,0.0,0.0,0.0,0.0,0.0,0.0028019174933433,-0.0020338632166385,-0.0060983896255493,0.0,0.0,0.0,0.0,0.0,0.0,0.0,0.0,0.0,-0.1225831881165504,0.0265111345797777,0.9819347858428956,0.0,0.0,0.0,0.0,0.0,0.0,0.0,0.0,0.0
54,1690899086.7049377,530059,1690899086,704655647,livox_frame,0.0,0.0,0.0,0.0,0.0,0.0,0.0,0.0,0.0,0.0,0.0,0.0,0.0,0.0038671791553497,0.0022271946072578,-0.0060983896255493,0.0,0.0,0.0,0.0,0.0,0.0,0.0,0.0,0.0,-0.1203859224915504,0.0318822301924228,0.9726574420928956,0.0,0.0,0.0,0.0,0.0,0.0,0.0,0.0,0.0
55,1690899086.7105496,530060,1690899086,710252047,livox_frame,0.0,0.0,0.0,0.0,0.0,0.0,0.0,0.0,0.0,0.0,0.0,0.0,0.0,0.0102587677538394,0.0054229889065027,-0.0071636512875556,0.0,0.0,0.0,0.0,0.0,0.0,0.0,0.0,0.0,-0.1076906099915504,0.0316380895674228,0.9826672077178956,0.0,0.0,0.0,0.0,0.0,0.0,0.0,0.0,0.0
56,1690899086.7147837,530061,1690899086,714482546,livox_frame,0.0,0.0,0.0,0.0,0.0,0.0,0.0,0.0,0.0,0.0,0.0,0.0,0.0,0.0113240331411361,0.0011619310826063,-0.009294182062149,0.0,0.0,0.0,0.0,0.0,0.0,0.0,0.0,0.0,-0.0959718599915504,0.0218724627047777,0.9775402545928956,0.0,0.0,0.0,0.0,0.0,0.0,0.0,0.0,0.0
57,1690899086.7205458,530062,1690899086,720319271,livox_frame,0.0,0.0,0.0,0.0,0.0,0.0,0.0,0.0,0.0,0.0,0.0,0.0,0.0,0.0123892948031425,0.0011619310826063,-0.009294182062149,0.0,0.0,0.0,0.0,0.0,0.0,0.0,0.0,0.0,-0.0915773287415504,0.0245580095797777,0.9917004108428956,0.0,0.0,0.0,0.0,0.0,0.0,0.0,0.0,0.0
58,1690899086.7248597,530063,1690899086,724622965,livox_frame,0.0,0.0,0.0,0.0,0.0,0.0,0.0,0.0,0.0,0.0,0.0,0.0,0.0,0.0070629753172397,-0.0041643921285867,-0.0050331279635429,0.0,0.0,0.0,0.0,0.0,0.0,0.0,0.0,0.0,-0.1089113131165504,0.0306615252047777,1.0002453327178955,0.0,0.0,0.0,0.0,0.0,0.0,0.0,0.0,0.0
59,1690899086.73061,530064,1690899086,730260849,livox_frame,0.0,0.0,0.0,0.0,0.0,0.0,0.0,0.0,0.0,0.0,0.0,0.0,0.0,0.0049324445426464,-0.0116212433204054,-0.009294182062149,0.0,0.0,0.0,0.0,0.0,0.0,0.0,0.0,0.0,-0.1181886568665504,0.0291966814547777,0.9960949420928956,0.0,0.0,0.0,0.0,0.0,0.0,0.0,0.0,0.0
60,1690899086.7347052,530065,1690899086,734506607,livox_frame,0.0,0.0,0.0,0.0,0.0,0.0,0.0,0.0,0.0,0.0,0.0,0.0,0.0,0.0017366521060466,-0.0105559788644313,-0.0071636512875556,0.0,0.0,0.0,0.0,0.0,0.0,0.0,0.0,0.0,-0.1216066256165504,0.0301732439547777,0.9775402545928956,0.0,0.0,0.0,0.0,0.0,0.0,0.0,0.0,0.0
61,1690899086.740656,530066,1690899086,740252018,livox_frame,0.0,0.0,0.0,0.0,0.0,0.0,0.0,0.0,0.0,0.0,0.0,0.0,0.0,0.005997709929943,-0.0094907144084572,-0.0071636512875556,0.0,0.0,0.0,0.0,0.0,0.0,0.0,0.0,0.0,-0.1174562349915504,0.0331029333174228,0.9812023639678956,0.0,0.0,0.0,0.0,0.0,0.0,0.0,0.0,0.0
62,1690899086.7449057,530067,1690899086,744537592,livox_frame,0.0,0.0,0.0,0.0,0.0,0.0,0.0,0.0,0.0,0.0,0.0,0.0,0.0,0.0145198255777359,-0.0084254499524831,-0.009294182062149,0.0,0.0,0.0,0.0,0.0,0.0,0.0,0.0,0.0,-0.1003663912415504,0.0262669939547777,0.9814465045928956,0.0,0.0,0.0,0.0,0.0,0.0,0.0,0.0,0.0
63,1690899086.750593,530068,1690899086,750275373,livox_frame,0.0,0.0,0.0,0.0,0.0,0.0,0.0,0.0,0.0,0.0,0.0,0.0,0.0,0.0134545601904392,-0.0030991276726126,-0.0103594437241554,0.0,0.0,0.0,0.0,0.0,0.0,0.0,0.0,0.0,-0.0866945162415504,0.0216283220797777,0.9853527545928956,0.0,0.0,0.0,0.0,0.0,0.0,0.0,0.0,0.0
64,1690899086.7547634,530069,1690899086,754544497,livox_frame,0.0,0.0,0.0,0.0,0.0,0.0,0.0,0.0,0.0,0.0,0.0,0.0,0.0,0.0134545601904392,0.0032924599945545,-0.0082289204001426,0.0,0.0,0.0,0.0,0.0,0.0,0.0,0.0,0.0,-0.0947511568665504,0.0269994158297777,0.9990246295928956,0.0,0.0,0.0,0.0,0.0,0.0,0.0,0.0,0.0
65,1690899086.7604086,530070,1690899086,760199308,livox_frame,0.0,0.0,0.0,0.0,0.0,0.0,0.0,0.0,0.0,0.0,0.0,0.0,0.0,0.0070629753172397,0.0054229889065027,-0.0060983896255493,0.0,0.0,0.0,0.0,0.0,0.0,0.0,0.0,0.0,-0.1103761568665504,0.0306615252047777,1.0041515827178955,0.0,0.0,0.0,0.0,0.0,0.0,0.0,0.0,0.0
66,1690899086.7647092,530071,1690899086,764492035,livox_frame,0.0,0.0,0.0,0.0,0.0,0.0,0.0,0.0,0.0,0.0,0.0,0.0,0.0,0.00067138671875,0.0011619310826063,-0.009294182062149,0.0,0.0,0.0,0.0,0.0,0.0,0.0,0.0,0.0,-0.1213624849915504,0.0304173845797777,0.9926769733428956,0.0,0.0,0.0,0.0,0.0,0.0,0.0,0.0,0.0
67,1690899086.7705426,530072,1690899086,770270824,livox_frame,0.0,0.0,0.0,0.0,0.0,0.0,0.0,0.0,0.0,0.0,0.0,0.0,0.0,0.0017366521060466,-0.0009685987606644,-0.0082289204001426,0.0,0.0,0.0,0.0,0.0,0.0,0.0,0.0,0.0,-0.126001164317131,0.0343236364424228,0.9729015827178956,0.0,0.0,0.0,0.0,0.0,0.0,0.0,0.0,0.0
68,1690899086.7747445,530073,1690899086,774522066,livox_frame,0.0,0.0,0.0,0.0,0.0,0.0,0.0,0.0,0.0,0.0,0.0,0.0,0.0,0.0081282369792461,-0.0041643921285867,-0.0039678588509559,0.0,0.0,0.0,0.0,0.0,0.0,0.0,0.0,0.0,-0.1189210787415504,0.0335912145674228,0.9760754108428956,0.0,0.0,0.0,0.0,0.0,0.0,0.0,0.0,0.0
69,1690899086.7805843,530074,1690899086,780320168,livox_frame,0.0,0.0,0.0,0.0,0.0,0.0,0.0,0.0,0.0,0.0,0.0,0.0,0.0,0.0113240331411361,-0.0116212433204054,-0.009294182062149,0.0,0.0,0.0,0.0,0.0,0.0,0.0,0.0,0.0,-0.0957277193665504,0.0267552752047777,0.9763195514678956,0.0,0.0,0.0,0.0,0.0,0.0,0.0,0.0,0.0
70,1690899086.7847505,530075,1690899086,784507751,livox_frame,0.0,0.0,0.0,0.0,0.0,0.0,0.0,0.0,0.0,0.0,0.0,0.0,0.0,0.0102587677538394,-0.0116212433204054,-0.0082289204001426,0.0,0.0,0.0,0.0,0.0,0.0,0.0,0.0,0.0,-0.0910890474915504,0.0267552752047777,0.9851086139678956,0.0,0.0,0.0,0.0,0.0,0.0,0.0,0.0,0.0
71,1690899086.7905414,530076,1690899086,790324926,livox_frame,0.0,0.0,0.0,0.0,0.0,0.0,0.0,0.0,0.0,0.0,0.0,0.0,0.0,0.0113240331411361,-0.0094907144084572,-0.009294182062149,0.0,0.0,0.0,0.0,0.0,0.0,0.0,0.0,0.0,-0.0925538912415504,0.0277318377047777,1.0029308795928955,0.0,0.0,0.0,0.0,0.0,0.0,0.0,0.0,0.0
72,1690899086.7949083,530077,1690899086,794646263,livox_frame,0.0,0.0,0.0,0.0,0.0,0.0,0.0,0.0,0.0,0.0,0.0,0.0,0.0,0.0070629753172397,-0.0084254499524831,-0.009294182062149,0.0,0.0,0.0,0.0,0.0,0.0,0.0,0.0,0.0,-0.1047609224915504,0.0277318377047777,1.0078136920928955,0.0,0.0,0.0,0.0,0.0,0.0,0.0,0.0,0.0
73,1690899086.8005428,530078,1690899086,800330162,livox_frame,0.0,0.0,0.0,0.0,0.0,0.0,0.0,0.0,0.0,0.0,0.0,0.0,0.0,0.00067138671875,-0.0030991276726126,-0.0082289204001426,0.0,0.0,0.0,0.0,0.0,0.0,0.0,0.0,0.0,-0.1203859224915504,0.0299291033297777,0.9899914264678956,0.0,0.0,0.0,0.0,0.0,0.0,0.0,0.0,0.0
74,1690899086.8049798,530079,1690899086,804750681,livox_frame,0.0,0.0,0.0,0.0,0.0,0.0,0.0,0.0,0.0,0.0,0.0,0.0,0.0,0.0017366521060466,0.0032924599945545,-0.0060983896255493,0.0,0.0,0.0,0.0,0.0,0.0,0.0,0.0,0.0,-0.1220949068665504,0.0348119176924228,0.9782726764678956,0.0,0.0,0.0,0.0,0.0,0.0,0.0,0.0,0.0
75,1690899086.8103783,530080,1690899086,810187340,livox_frame,0.0,0.0,0.0,0.0,0.0,0.0,0.0,0.0,0.0,0.0,0.0,0.0,0.0,0.0081282369792461,0.004357723519206,-0.0050331279635429,0.0,0.0,0.0,0.0,0.0,0.0,0.0,0.0,0.0,-0.1130617037415504,0.0284642595797777,0.9758312702178956,0.0,0.0,0.0,0.0,0.0,0.0,0.0,0.0,0.0
76,1690899086.8148308,530081,1690899086,814553022,livox_frame,0.0,0.0,0.0,0.0,0.0,0.0,0.0,0.0,0.0,0.0,0.0,0.0,0.0,0.0091935023665428,0.0022271946072578,-0.009294182062149,0.0,0.0,0.0,0.0,0.0,0.0,0.0,0.0,0.0,-0.0979249849915504,0.0252904314547777,0.9782726764678956,0.0,0.0,0.0,0.0,0.0,0.0,0.0,0.0,0.0
77,1690899086.8205674,530082,1690899086,820339441,livox_frame,0.0,0.0,0.0,0.0,0.0,0.0,0.0,0.0,0.0,0.0,0.0,0.0,0.0,0.0134545601904392,9.666569530963898e-05,-0.0114247128367424,0.0,0.0,0.0,0.0,0.0,0.0,0.0,0.0,0.0,-0.0940187349915504,0.0252904314547777,0.9826672077178956,0.0,0.0,0.0,0.0,0.0,0.0,0.0,0.0,0.0
78,1690899086.824762,530083,1690899086,824582815,livox_frame,0.0,0.0,0.0,0.0,0.0,0.0,0.0,0.0,0.0,0.0,0.0,0.0,0.0,0.0102587677538394,-0.0052296565845608,-0.0071636512875556,0.0,0.0,0.0,0.0,0.0,0.0,0.0,0.0,0.0,-0.1001222506165504,0.0277318377047777,1.0004894733428955,0.0,0.0,0.0,0.0,0.0,0.0,0.0,0.0,0.0
79,1690899086.8305285,530084,1690899086,830255032,livox_frame,0.0,0.0,0.0,0.0,0.0,0.0,0.0,0.0,0.0,0.0,0.0,0.0,0.0,0.005997709929943,-0.0094907144084572,-0.0082289204001426,0.0,0.0,0.0,0.0,0.0,0.0,0.0,0.0,0.0,-0.1115968599915504,0.0267552752047777,0.9970715045928956,0.0,0.0,0.0,0.0,0.0,0.0,0.0,0.0,0.0
80,1690899086.8347688,530085,1690899086,834521532,livox_frame,0.0,0.0,0.0,0.0,0.0,0.0,0.0,0.0,0.0,0.0,0.0,0.0,0.0,-0.0003938786685466,-0.0105559788644313,-0.0071636512875556,0.0,0.0,0.0,0.0,0.0,0.0,0.0,0.0,0.0,-0.1230714693665504,0.0328587926924228,0.9875500202178956,0.0,0.0,0.0,0.0,0.0,0.0,0.0,0.0,0.0
81,1690899086.8404417,530086,1690899086,840171576,livox_frame,0.0,0.0,0.0,0.0,0.0,0.0,0.0,0.0,0.0,0.0,0.0,0.0,0.0,0.0017366521060466,-0.0062949210405349,-0.0029025971889495,0.0,0.0,0.0,0.0,0.0,0.0,0.0,0.0,0.0,-0.1186769381165504,0.0321263708174228,0.9799816608428956,0.0,0.0,0.0,0.0,0.0,0.0,0.0,0.0,0.0
82,1690899086.8448756,530087,1690899086,844545126,livox_frame,0.0,0.0,0.0,0.0,0.0,0.0,0.0,0.0,0.0,0.0,0.0,0.0,0.0,0.0123892948031425,-0.007360185496509,-0.009294182062149,0.0,0.0,0.0,0.0,0.0,0.0,0.0,0.0,0.0,-0.1086671724915504,0.0252904314547777,0.9792492389678956,0.0,0.0,0.0,0.0,0.0,0.0,0.0,0.0,0.0
83,1690899086.850678,530088,1690899086,850261927,livox_frame,0.0,0.0,0.0,0.0,0.0,0.0,0.0,0.0,0.0,0.0,0.0,0.0,0.0,0.0123892948031425,-0.0030991276726126,-0.0082289204001426,0.0,0.0,0.0,0.0,0.0,0.0,0.0,0.0,0.0,-0.0925538912415504,0.0257787127047777,0.9826672077178956,0.0,0.0,0.0,0.0,0.0,0.0,0.0,0.0,0.0
84,1690899086.8547964,530089,1690899086,854587555,livox_frame,0.0,0.0,0.0,0.0,0.0,0.0,0.0,0.0,0.0,0.0,0.0,0.0,0.0,0.0123892948031425,0.004357723519206,-0.0082289204001426,0.0,0.0,0.0,0.0,0.0,0.0,0.0,0.0,0.0,-0.0908449068665504,0.0250462908297777,0.9946300983428956,0.0,0.0,0.0,0.0,0.0,0.0,0.0,0.0,0.0
85,1690899086.86052,530090,1690899086,860330582,livox_frame,0.0,0.0,0.0,0.0,0.0,0.0,0.0,0.0,0.0,0.0,0.0,0.0,0.0,0.0102587677538394,0.0054229889065027,-0.0071636512875556,0.0,0.0,0.0,0.0,0.0,0.0,0.0,0.0,0.0,-0.1047609224915504,0.0213841814547777,1.0019543170928955,0.0,0.0,0.0,0.0,0.0,0.0,0.0,0.0,0.0
86,1690899086.8647969,530091,1690899086,864609480,livox_frame,0.0,0.0,0.0,0.0,0.0,0.0,0.0,0.0,0.0,0.0,0.0,0.0,0.0,0.00067138671875,0.0032924599945545,-0.0060983896255493,0.0,0.0,0.0,0.0,0.0,0.0,0.0,0.0,0.0,-0.1172120943665504,0.0296849627047777,1.0017101764678955,0.0,0.0,0.0,0.0,0.0,0.0,0.0,0.0,0.0
87,1690899086.870338,530092,1690899086,870158911,livox_frame,0.0,0.0,0.0,0.0,0.0,0.0,0.0,0.0,0.0,0.0,0.0,0.0,0.0,0.00067138671875,-0.0009685987606644,-0.0050331279635429,0.0,0.0,0.0,0.0,0.0,0.0,0.0,0.0,0.0,-0.129907414317131,0.0321263708174228,0.9763195514678956,0.0,0.0,0.0,0.0,0.0,0.0,0.0,0.0,0.0
88,1690899086.8748367,530093,1690899086,874603510,livox_frame,0.0,0.0,0.0,0.0,0.0,0.0,0.0,0.0,0.0,0.0,0.0,0.0,0.0,0.005997709929943,-0.0030991276726126,-0.0039678588509559,0.0,0.0,0.0,0.0,0.0,0.0,0.0,0.0,0.0,-0.1230714693665504,0.0294408220797777,0.9758312702178956,0.0,0.0,0.0,0.0,0.0,0.0,0.0,0.0,0.0
89,1690899086.880521,530094,1690899086,880332947,livox_frame,0.0,0.0,0.0,0.0,0.0,0.0,0.0,0.0,0.0,0.0,0.0,0.0,0.0,0.0081282369792461,-0.0094907144084572,-0.009294182062149,0.0,0.0,0.0,0.0,0.0,0.0,0.0,0.0,0.0,-0.1047609224915504,0.0301732439547777,0.9750988483428956,0.0,0.0,0.0,0.0,0.0,0.0,0.0,0.0,0.0
90,1690899086.8848171,530095,1690899086,884619713,livox_frame,0.0,0.0,0.0,0.0,0.0,0.0,0.0,0.0,0.0,0.0,0.0,0.0,0.0,0.0113240331411361,-0.0137517722323536,-0.0071636512875556,0.0,0.0,0.0,0.0,0.0,0.0,0.0,0.0,0.0,-0.0937745943665504,0.0291966814547777,0.9797375202178956,0.0,0.0,0.0,0.0,0.0,0.0,0.0,0.0,0.0
91,1690899086.8905444,530096,1690899086,890274048,livox_frame,0.0,0.0,0.0,0.0,0.0,0.0,0.0,0.0,0.0,0.0,0.0,0.0,0.0,0.0145198255777359,-0.0105559788644313,-0.0060983896255493,0.0,0.0,0.0,0.0,0.0,0.0,0.0,0.0,0.0,-0.0903566256165504,0.0245580095797777,0.9968273639678956,0.0,0.0,0.0,0.0,0.0,0.0,0.0,0.0,0.0
92,1690899086.8946416,530097,1690899086,894419432,livox_frame,0.0,0.0,0.0,0.0,0.0,0.0,0.0,0.0,0.0,0.0,0.0,0.0,0.0,0.0113240331411361,-0.0094907144084572,-0.009294182062149,0.0,0.0,0.0,0.0,0.0,0.0,0.0,0.0,0.0,-0.0991456881165504,0.0272435564547777,1.0090343952178955,0.0,0.0,0.0,0.0,0.0,0.0,0.0,0.0,0.0
93,1690899086.9005666,530098,1690899086,900290728,livox_frame,0.0,0.0,0.0,0.0,0.0,0.0,0.0,0.0,0.0,0.0,0.0,0.0,0.0,0.0017366521060466,-0.0052296565845608,-0.0071636512875556,0.0,0.0,0.0,0.0,0.0,0.0,0.0,0.0,0.0,-0.1145265474915504,0.0335912145674228,1.0029308795928955,0.0,0.0,0.0,0.0,0.0,0.0,0.0,0.0,0.0
94,1690899086.9047065,530099,1690899086,904445171,livox_frame,0.0,0.0,0.0,0.0,0.0,0.0,0.0,0.0,0.0,0.0,0.0,0.0,0.0,0.0017366521060466,0.004357723519206,-0.0050331279635429,0.0,0.0,0.0,0.0,0.0,0.0,0.0,0.0,0.0,-0.1225831881165504,0.0318822301924228,0.9802258014678956,0.0,0.0,0.0,0.0,0.0,0.0,0.0,0.0,0.0
95,1690899086.9105885,530100,1690899086,910330772,livox_frame,0.0,0.0,0.0,0.0,0.0,0.0,0.0,0.0,0.0,0.0,0.0,0.0,0.0,0.0017366521060466,0.0054229889065027,-0.0050331279635429,0.0,0.0,0.0,0.0,0.0,0.0,0.0,0.0,0.0,-0.1194093599915504,0.0311498064547777,0.9750988483428956,0.0,0.0,0.0,0.0,0.0,0.0,0.0,0.0,0.0
96,1690899086.9149466,530101,1690899086,914673090,livox_frame,0.0,0.0,0.0,0.0,0.0,0.0,0.0,0.0,0.0,0.0,0.0,0.0,0.0,0.0091935023665428,0.0011619310826063,-0.0082289204001426,0.0,0.0,0.0,0.0,0.0,0.0,0.0,0.0,0.0,-0.1052492037415504,0.0316380895674228,0.9782726764678956,0.0,0.0,0.0,0.0,0.0,0.0,0.0,0.0,0.0
97,1690899086.920539,530102,1690899086,920333624,livox_frame,0.0,0.0,0.0,0.0,0.0,0.0,0.0,0.0,0.0,0.0,0.0,0.0,0.0,0.0134545601904392,0.0011619310826063,-0.009294182062149,0.0,0.0,0.0,0.0,0.0,0.0,0.0,0.0,0.0,-0.0952394381165504,0.0248021502047777,0.9743664264678956,0.0,0.0,0.0,0.0,0.0,0.0,0.0,0.0,0.0
98,1690899086.9248283,530103,1690899086,924612761,livox_frame,0.0,0.0,0.0,0.0,0.0,0.0,0.0,0.0,0.0,0.0,0.0,0.0,0.0,0.0113240331411361,-0.0020338632166385,-0.0082289204001426,0.0,0.0,0.0,0.0,0.0,0.0,0.0,0.0,0.0,-0.0935304537415504,0.0243138689547777,0.9970715045928956,0.0,0.0,0.0,0.0,0.0,0.0,0.0,0.0,0.0
99,1690899086.930957,530104,1690899086,930155277,livox_frame,0.0,0.0,0.0,0.0,0.0,0.0,0.0,0.0,0.0,0.0,0.0,0.0,0.0,0.005997709929943,-0.0094907144084572,-0.0071636512875556,0.0,0.0,0.0,0.0,0.0,0.0,0.0,0.0,0.0,-0.1052492037415504,0.0301732439547777,1.0009777545928955,0.0,0.0,0.0,0.0,0.0,0.0,0.0,0.0,0.0
100,1690899086.9347177,530105,1690899086,934549093,livox_frame,0.0,0.0,0.0,0.0,0.0,0.0,0.0,0.0,0.0,0.0,0.0,0.0,0.0,0.0028019174933433,-0.0105559788644313,-0.0071636512875556,0.0,0.0,0.0,0.0,0.0,0.0,0.0,0.0,0.0,-0.1169679537415504,0.0335912145674228,0.9931652545928956,0.0,0.0,0.0,0.0,0.0,0.0,0.0,0.0,0.0
101,1690899086.940574,530106,1690899086,940284967,livox_frame,0.0,0.0,0.0,0.0,0.0,0.0,0.0,0.0,0.0,0.0,0.0,0.0,0.0,0.0017366521060466,-0.0084254499524831,-0.0039678588509559,0.0,0.0,0.0,0.0,0.0,0.0,0.0,0.0,0.0,-0.1177003756165504,0.0299291033297777,0.9821789264678956,0.0,0.0,0.0,0.0,0.0,0.0,0.0,0.0,0.0
102,1690899086.9447317,530107,1690899086,944450140,livox_frame,0.0,0.0,0.0,0.0,0.0,0.0,0.0,0.0,0.0,0.0,0.0,0.0,0.0,0.005997709929943,-0.007360185496509,-0.0060983896255493,0.0,0.0,0.0,0.0,0.0,0.0,0.0,0.0,0.0,-0.1167238131165504,0.0316380895674228,0.9777843952178956,0.0,0.0,0.0,0.0,0.0,0.0,0.0,0.0,0.0
103,1690899086.9506164,530108,1690899086,950268984,livox_frame,0.0,0.0,0.0,0.0,0.0,0.0,0.0,0.0,0.0,0.0,0.0,0.0,0.0,0.0102587677538394,-0.0052296565845608,-0.009294182062149,0.0,0.0,0.0,0.0,0.0,0.0,0.0,0.0,0.0,-0.0969484224915504,0.0296849627047777,0.9816906452178956,0.0,0.0,0.0,0.0,0.0,0.0,0.0,0.0,0.0
104,1690899086.9547706,530109,1690899086,954531670,livox_frame,0.0,0.0,0.0,0.0,0.0,0.0,0.0,0.0,0.0,0.0,0.0,0.0,0.0,0.0134545601904392,0.0011619310826063,-0.0082289204001426,0.0,0.0,0.0,0.0,0.0,0.0,0.0,0.0,0.0,-0.0866945162415504,0.0204076189547777,0.9860851764678956,0.0,0.0,0.0,0.0,0.0,0.0,0.0,0.0,0.0
105,1690899086.96056,530110,1690899086,960285902,livox_frame,0.0,0.0,0.0,0.0,0.0,0.0,0.0,0.0,0.0,0.0,0.0,0.0,0.0,0.0102587677538394,0.0064882524311542,-0.0060983896255493,0.0,0.0,0.0,0.0,0.0,0.0,0.0,0.0,0.0,-0.0984132662415504,0.0233373064547777,1.0009777545928955,0.0,0.0,0.0,0.0,0.0,0.0,0.0,0.0,0.0
106,1690899086.964679,530111,1690899086,964481354,livox_frame,0.0,0.0,0.0,0.0,0.0,0.0,0.0,0.0,0.0,0.0,0.0,0.0,0.0,0.005997709929943,0.0011619310826063,-0.009294182062149,0.0,0.0,0.0,0.0,0.0,0.0,0.0,0.0,0.0,-0.1130617037415504,0.0309056658297777,1.0068371295928955,0.0,0.0,0.0,0.0,0.0,0.0,0.0,0.0,0.0
107,1690899086.9706345,530112,1690899086,970259190,livox_frame,0.0,0.0,0.0,0.0,0.0,0.0,0.0,0.0,0.0,0.0,0.0,0.0,0.0,0.0028019174933433,9.666569530963898e-05,-0.0050331279635429,0.0,0.0,0.0,0.0,0.0,0.0,0.0,0.0,0.0,-0.125268742442131,0.0274876970797777,0.9812023639678956,0.0,0.0,0.0,0.0,0.0,0.0,0.0,0.0,0.0
108,1690899086.9748223,530113,1690899086,974540472,livox_frame,0.0,0.0,0.0,0.0,0.0,0.0,0.0,0.0,0.0,0.0,0.0,0.0,0.0,0.0038671791553497,-0.0009685987606644,-0.0050331279635429,0.0,0.0,0.0,0.0,0.0,0.0,0.0,0.0,0.0,-0.126733586192131,0.0296849627047777,0.9799816608428956,0.0,0.0,0.0,0.0,0.0,0.0,0.0,0.0,0.0
109,1690899086.980661,530114,1690899086,980254173,livox_frame,0.0,0.0,0.0,0.0,0.0,0.0,0.0,0.0,0.0,0.0,0.0,0.0,0.0,0.005997709929943,-0.0094907144084572,-0.0082289204001426,0.0,0.0,0.0,0.0,0.0,0.0,0.0,0.0,0.0,-0.1157472506165504,0.0323705114424228,0.9755871295928956,0.0,0.0,0.0,0.0,0.0,0.0,0.0,0.0,0.0
110,1690899086.9847498,530115,1690899086,984534979,livox_frame,0.0,0.0,0.0,0.0,0.0,0.0,0.0,0.0,0.0,0.0,0.0,0.0,0.0,0.0102587677538394,-0.0116212433204054,-0.0071636512875556,0.0,0.0,0.0,0.0,0.0,0.0,0.0,0.0,0.0,-0.0954835787415504,0.0265111345797777,0.9733898639678956,0.0,0.0,0.0,0.0,0.0,0.0,0.0,0.0,0.0
111,1690899086.990535,530116,1690899086,990334272,livox_frame,0.0,0.0,0.0,0.0,0.0,0.0,0.0,0.0,0.0,0.0,0.0,0.0,0.0,0.0113240331411361,-0.0094907144084572,-0.009294182062149,0.0,0.0,0.0,0.0,0.0,0.0,0.0,0.0,0.0,-0.0884035006165504,0.0233373064547777,0.9926769733428956,0.0,0.0,0.0,0.0,0.0,0.0,0.0,0.0,0.0
112,1690899086.995003,530117,1690899086,994664669,livox_frame,0.0,0.0,0.0,0.0,0.0,0.0,0.0,0.0,0.0,0.0,0.0,0.0,0.0,0.0123892948031425,-0.0094907144084572,-0.009294182062149,0.0,0.0,0.0,0.0,0.0,0.0,0.0,0.0,0.0,-0.0959718599915504,0.0277318377047777,1.0061047077178955,0.0,0.0,0.0,0.0,0.0,0.0,0.0,0.0,0.0
113,1690899087.0004158,530118,1690899087,191927,livox_frame,0.0,0.0,0.0,0.0,0.0,0.0,0.0,0.0,0.0,0.0,0.0,0.0,0.0,0.005997709929943,-0.0052296565845608,-0.0071636512875556,0.0,0.0,0.0,0.0,0.0,0.0,0.0,0.0,0.0,-0.1076906099915504,0.0296849627047777,1.0058605670928955,0.0,0.0,0.0,0.0,0.0,0.0,0.0,0.0,0.0
114,1690899087.004769,530119,1690899087,4479408,livox_frame,0.0,0.0,0.0,0.0,0.0,0.0,0.0,0.0,0.0,0.0,0.0,0.0,0.0,0.0028019174933433,0.0022271946072578,-0.0060983896255493,0.0,0.0,0.0,0.0,0.0,0.0,0.0,0.0,0.0,-0.1206300631165504,0.0267552752047777,0.9858410358428956,0.0,0.0,0.0,0.0,0.0,0.0,0.0,0.0,0.0
115,1690899087.0105405,530120,1690899087,10239601,livox_frame,0.0,0.0,0.0,0.0,0.0,0.0,0.0,0.0,0.0,0.0,0.0,0.0,0.0,0.0017366521060466,0.004357723519206,-0.0039678588509559,0.0,0.0,0.0,0.0,0.0,0.0,0.0,0.0,0.0,-0.125024601817131,0.0348119176924228,0.9794933795928956,0.0,0.0,0.0,0.0,0.0,0.0,0.0,0.0,0.0
116,1690899087.0147707,530121,1690899087,14514446,livox_frame,0.0,0.0,0.0,0.0,0.0,0.0,0.0,0.0,0.0,0.0,0.0,0.0,0.0,0.0070629753172397,0.0011619310826063,-0.009294182062149,0.0,0.0,0.0,0.0,0.0,0.0,0.0,0.0,0.0,-0.1128175631165504,0.0331029333174228,0.9777843952178956,0.0,0.0,0.0,0.0,0.0,0.0,0.0,0.0,0.0
117,1690899087.0205483,530122,1690899087,20332336,livox_frame,0.0,0.0,0.0,0.0,0.0,0.0,0.0,0.0,0.0,0.0,0.0,0.0,0.0,0.0123892948031425,9.666569530963898e-05,-0.009294182062149,0.0,0.0,0.0,0.0,0.0,0.0,0.0,0.0,0.0,-0.0984132662415504,0.0218724627047777,0.9702160358428956,0.0,0.0,0.0,0.0,0.0,0.0,0.0,0.0,0.0
118,1690899087.0249374,530123,1690899087,24721861,livox_frame,0.0,0.0,0.0,0.0,0.0,0.0,0.0,0.0,0.0,0.0,0.0,0.0,0.0,0.0134545601904392,-0.0020338632166385,-0.0071636512875556,0.0,0.0,0.0,0.0,0.0,0.0,0.0,0.0,0.0,-0.0920656099915504,0.0262669939547777,0.9912121295928956,0.0,0.0,0.0,0.0,0.0,0.0,0.0,0.0,0.0
119,1690899087.0306833,530124,1690899087,30140162,livox_frame,0.0,0.0,0.0,0.0,0.0,0.0,0.0,0.0,0.0,0.0,0.0,0.0,0.0,0.0081282369792461,-0.0116212433204054,-0.0071636512875556,0.0,0.0,0.0,0.0,0.0,0.0,0.0,0.0,0.0,-0.1015870943665504,0.0313939489424228,1.0048840045928955,0.0,0.0,0.0,0.0,0.0,0.0,0.0,0.0,0.0
120,1690899087.0347826,530125,1690899087,34539938,livox_frame,0.0,0.0,0.0,0.0,0.0,0.0,0.0,0.0,0.0,0.0,0.0,0.0,0.0,0.0038671791553497,-0.0116212433204054,-0.0050331279635429,0.0,0.0,0.0,0.0,0.0,0.0,0.0,0.0,0.0,-0.1106202974915504,0.0267552752047777,0.9921886920928956,0.0,0.0,0.0,0.0,0.0,0.0,0.0,0.0,0.0
121,1690899087.0405767,530126,1690899087,40222645,livox_frame,0.0,0.0,0.0,0.0,0.0,0.0,0.0,0.0,0.0,0.0,0.0,0.0,0.0,0.0017366521060466,-0.0094907144084572,-0.0050331279635429,0.0,0.0,0.0,0.0,0.0,0.0,0.0,0.0,0.0,-0.1203859224915504,0.0321263708174228,0.9887707233428956,0.0,0.0,0.0,0.0,0.0,0.0,0.0,0.0,0.0
122,1690899087.044808,530127,1690899087,44536829,livox_frame,0.0,0.0,0.0,0.0,0.0,0.0,0.0,0.0,0.0,0.0,0.0,0.0,0.0,0.0049324445426464,-0.0062949210405349,-0.0050331279635429,0.0,0.0,0.0,0.0,0.0,0.0,0.0,0.0,0.0,-0.1201417818665504,0.0365209020674228,0.9802258014678956,0.0,0.0,0.0,0.0,0.0,0.0,0.0,0.0,0.0
123,1690899087.050553,530128,1690899087,50220966,livox_frame,0.0,0.0,0.0,0.0,0.0,0.0,0.0,0.0,0.0,0.0,0.0,0.0,0.0,0.0102587677538394,-0.0052296565845608,-0.0103594437241554,0.0,0.0,0.0,0.0,0.0,0.0,0.0,0.0,0.0,-0.1015870943665504,0.0287084002047777,0.9777843952178956,0.0,0.0,0.0,0.0,0.0,0.0,0.0,0.0,0.0
124,1690899087.0547376,530129,1690899087,54534912,livox_frame,0.0,0.0,0.0,0.0,0.0,0.0,0.0,0.0,0.0,0.0,0.0,0.0,0.0,0.0123892948031425,0.0022271946072578,-0.0114247128367424,0.0,0.0,0.0,0.0,0.0,0.0,0.0,0.0,0.0,-0.0896242037415504,0.0221166033297777,0.9794933795928956,0.0,0.0,0.0,0.0,0.0,0.0,0.0,0.0,0.0
125,1690899087.0605226,530130,1690899087,60333014,livox_frame,0.0,0.0,0.0,0.0,0.0,0.0,0.0,0.0,0.0,0.0,0.0,0.0,0.0,0.0091935023665428,0.0022271946072578,-0.009294182062149,0.0,0.0,0.0,0.0,0.0,0.0,0.0,0.0,0.0,-0.0927980318665504,0.0272435564547777,1.0012218952178955,0.0,0.0,0.0,0.0,0.0,0.0,0.0,0.0,0.0
126,1690899087.0649097,530131,1690899087,64706087,livox_frame,0.0,0.0,0.0,0.0,0.0,0.0,0.0,0.0,0.0,0.0,0.0,0.0,0.0,0.0091935023665428,0.0022271946072578,-0.009294182062149,0.0,0.0,0.0,0.0,0.0,0.0,0.0,0.0,0.0,-0.1042726412415504,0.0267552752047777,1.0024425983428955,0.0,0.0,0.0,0.0,0.0,0.0,0.0,0.0,0.0
127,1690899087.070433,530132,1690899087,70205450,livox_frame,0.0,0.0,0.0,0.0,0.0,0.0,0.0,0.0,0.0,0.0,0.0,0.0,0.0,0.0017366521060466,0.0011619310826063,-0.0050331279635429,0.0,0.0,0.0,0.0,0.0,0.0,0.0,0.0,0.0,-0.1184327974915504,0.0262669939547777,0.9899914264678956,0.0,0.0,0.0,0.0,0.0,0.0,0.0,0.0,0.0
128,1690899087.0747445,530133,1690899087,74501991,livox_frame,0.0,0.0,0.0,0.0,0.0,0.0,0.0,0.0,0.0,0.0,0.0,0.0,0.0,0.0028019174933433,-0.0041643921285867,-0.0039678588509559,0.0,0.0,0.0,0.0,0.0,0.0,0.0,0.0,0.0,-0.127466008067131,0.0323705114424228,0.9824230670928956,0.0,0.0,0.0,0.0,0.0,0.0,0.0,0.0,0.0
129,1690899087.080409,530134,1690899087,80208778,livox_frame,0.0,0.0,0.0,0.0,0.0,0.0,0.0,0.0,0.0,0.0,0.0,0.0,0.0,0.0070629753172397,-0.007360185496509,-0.0071636512875556,0.0,0.0,0.0,0.0,0.0,0.0,0.0,0.0,0.0,-0.1230714693665504,0.0338353551924228,0.9758312702178956,0.0,0.0,0.0,0.0,0.0,0.0,0.0,0.0,0.0
130,1690899087.0846975,530135,1690899087,84485292,livox_frame,0.0,0.0,0.0,0.0,0.0,0.0,0.0,0.0,0.0,0.0,0.0,0.0,0.0,0.0070629753172397,-0.0126865077763795,-0.0082289204001426,0.0,0.0,0.0,0.0,0.0,0.0,0.0,0.0,0.0,-0.0996339693665504,0.0250462908297777,0.9719250202178956,0.0,0.0,0.0,0.0,0.0,0.0,0.0,0.0,0.0
131,1690899087.0906124,530136,1690899087,90272665,livox_frame,0.0,0.0,0.0,0.0,0.0,0.0,0.0,0.0,0.0,0.0,0.0,0.0,0.0,0.0145198255777359,-0.007360185496509,-0.0082289204001426,0.0,0.0,0.0,0.0,0.0,0.0,0.0,0.0,0.0,-0.0918214693665504,0.0267552752047777,1.0024425983428955,0.0,0.0,0.0,0.0,0.0,0.0,0.0,0.0,0.0
132,1690899087.0948875,530137,1690899087,94641924,livox_frame,0.0,0.0,0.0,0.0,0.0,0.0,0.0,0.0,0.0,0.0,0.0,0.0,0.0,0.0145198255777359,-0.007360185496509,-0.0082289204001426,0.0,0.0,0.0,0.0,0.0,0.0,0.0,0.0,0.0,-0.0918214693665504,0.0267552752047777,1.0024425983428955,0.0,0.0,0.0,0.0,0.0,0.0,0.0,0.0,0.0
133,1690899087.1005893,530138,1690899087,100293636,livox_frame,0.0,0.0,0.0,0.0,0.0,0.0,0.0,0.0,0.0,0.0,0.0,0.0,0.0,0.0017366521060466,0.0032924599945545,-0.0060983896255493,0.0,0.0,0.0,0.0,0.0,0.0,0.0,0.0,0.0,-0.1189210787415504,0.0289525408297777,0.9909679889678956,0.0,0.0,0.0,0.0,0.0,0.0,0.0,0.0,0.0
134,1690899087.10472,530139,1690899087,104469538,livox_frame,0.0,0.0,0.0,0.0,0.0,0.0,0.0,0.0,0.0,0.0,0.0,0.0,0.0,0.0017366521060466,0.0032924599945545,-0.0060983896255493,0.0,0.0,0.0,0.0,0.0,0.0,0.0,0.0,0.0,-0.1189210787415504,0.0289525408297777,0.9909679889678956,0.0,0.0,0.0,0.0,0.0,0.0,0.0,0.0,0.0
135,1690899087.1103375,530140,1690899087,110153913,livox_frame,0.0,0.0,0.0,0.0,0.0,0.0,0.0,0.0,0.0,0.0,0.0,0.0,0.0,0.00067138671875,0.0064882524311542,-0.0060983896255493,0.0,0.0,0.0,0.0,0.0,0.0,0.0,0.0,0.0,-0.126489445567131,0.0365209020674228,0.9875500202178956,0.0,0.0,0.0,0.0,0.0,0.0,0.0,0.0,0.0
136,1690899087.1148,530141,1690899087,114592314,livox_frame,0.0,0.0,0.0,0.0,0.0,0.0,0.0,0.0,0.0,0.0,0.0,0.0,0.0,0.005997709929943,0.0011619310826063,-0.0082289204001426,0.0,0.0,0.0,0.0,0.0,0.0,0.0,0.0,0.0,-0.1218507662415504,0.0291966814547777,0.9731457233428956,0.0,0.0,0.0,0.0,0.0,0.0,0.0,0.0,0.0
137,1690899087.1205454,530142,1690899087,120331049,livox_frame,0.0,0.0,0.0,0.0,0.0,0.0,0.0,0.0,0.0,0.0,0.0,0.0,0.0,0.0145198255777359,-0.0030991276726126,-0.0103594437241554,0.0,0.0,0.0,0.0,0.0,0.0,0.0,0.0,0.0,-0.0967042818665504,0.0272435564547777,0.9848644733428956,0.0,0.0,0.0,0.0,0.0,0.0,0.0,0.0,0.0
138,1690899087.1248963,530143,1690899087,124667883,livox_frame,0.0,0.0,0.0,0.0,0.0,0.0,0.0,0.0,0.0,0.0,0.0,0.0,0.0,0.0145198255777359,-0.0030991276726126,-0.0103594437241554,0.0,0.0,0.0,0.0,0.0,0.0,0.0,0.0,0.0,-0.0967042818665504,0.0272435564547777,0.9848644733428956,0.0,0.0,0.0,0.0,0.0,0.0,0.0,0.0,0.0
139,1690899087.1305492,530144,1690899087,130227566,livox_frame,0.0,0.0,0.0,0.0,0.0,0.0,0.0,0.0,0.0,0.0,0.0,0.0,0.0,0.005997709929943,-0.0116212433204054,-0.0082289204001426,0.0,0.0,0.0,0.0,0.0,0.0,0.0,0.0,0.0,-0.1047609224915504,0.0248021502047777,0.9958508014678956,0.0,0.0,0.0,0.0,0.0,0.0,0.0,0.0,0.0
140,1690899087.1347072,530145,1690899087,134489298,livox_frame,0.0,0.0,0.0,0.0,0.0,0.0,0.0,0.0,0.0,0.0,0.0,0.0,0.0,0.005997709929943,-0.0116212433204054,-0.0082289204001426,0.0,0.0,0.0,0.0,0.0,0.0,0.0,0.0,0.0,-0.1047609224915504,0.0248021502047777,0.9958508014678956,0.0,0.0,0.0,0.0,0.0,0.0,0.0,0.0,0.0
141,1690899087.1406324,530146,1690899087,140226841,livox_frame,0.0,0.0,0.0,0.0,0.0,0.0,0.0,0.0,0.0,0.0,0.0,0.0,0.0,0.0038671791553497,-0.0062949210405349,-0.0039678588509559,0.0,0.0,0.0,0.0,0.0,0.0,0.0,0.0,0.0,-0.1218507662415504,0.0350560583174228,0.9863293170928956,0.0,0.0,0.0,0.0,0.0,0.0,0.0,0.0,0.0
142,1690899087.144751,530147,1690899087,144484520,livox_frame,0.0,0.0,0.0,0.0,0.0,0.0,0.0,0.0,0.0,0.0,0.0,0.0,0.0,0.0038671791553497,-0.0062949210405349,-0.0039678588509559,0.0,0.0,0.0,0.0,0.0,0.0,0.0,0.0,0.0,-0.1218507662415504,0.0350560583174228,0.9863293170928956,0.0,0.0,0.0,0.0,0.0,0.0,0.0,0.0,0.0
143,1690899087.1506495,530148,1690899087,150277853,livox_frame,0.0,0.0,0.0,0.0,0.0,0.0,0.0,0.0,0.0,0.0,0.0,0.0,0.0,0.0102587677538394,0.0011619310826063,-0.009294182062149,0.0,0.0,0.0,0.0,0.0,0.0,0.0,0.0,0.0,-0.0962160006165504,0.0267552752047777,0.9741222858428956,0.0,0.0,0.0,0.0,0.0,0.0,0.0,0.0,0.0
144,1690899087.1546912,530149,1690899087,154473782,livox_frame,0.0,0.0,0.0,0.0,0.0,0.0,0.0,0.0,0.0,0.0,0.0,0.0,0.0,0.0102587677538394,0.0011619310826063,-0.009294182062149,0.0,0.0,0.0,0.0,0.0,0.0,0.0,0.0,0.0,-0.0962160006165504,0.0267552752047777,0.9741222858428956,0.0,0.0,0.0,0.0,0.0,0.0,0.0,0.0,0.0
145,1690899087.1606624,530150,1690899087,160263538,livox_frame,0.0,0.0,0.0,0.0,0.0,0.0,0.0,0.0,0.0,0.0,0.0,0.0,0.0,0.0113240331411361,0.0022271946072578,-0.0103594437241554,0.0,0.0,0.0,0.0,0.0,0.0,0.0,0.0,0.0,-0.1001222506165504,0.0223607439547777,0.9995129108428956,0.0,0.0,0.0,0.0,0.0,0.0,0.0,0.0,0.0
146,1690899087.1648357,530151,1690899087,164589643,livox_frame,0.0,0.0,0.0,0.0,0.0,0.0,0.0,0.0,0.0,0.0,0.0,0.0,0.0,0.0113240331411361,0.0022271946072578,-0.0103594437241554,0.0,0.0,0.0,0.0,0.0,0.0,0.0,0.0,0.0,-0.1001222506165504,0.0223607439547777,0.9995129108428956,0.0,0.0,0.0,0.0,0.0,0.0,0.0,0.0,0.0
147,1690899087.170545,530152,1690899087,170248508,livox_frame,0.0,0.0,0.0,0.0,0.0,0.0,0.0,0.0,0.0,0.0,0.0,0.0,0.0,0.0017366521060466,-0.0030991276726126,-0.0039678588509559,0.0,0.0,0.0,0.0,0.0,0.0,0.0,0.0,0.0,-0.1247804537415504,0.0338353551924228,0.9865734577178956,0.0,0.0,0.0,0.0,0.0,0.0,0.0,0.0,0.0
148,1690899087.1746962,530153,1690899087,174520016,livox_frame,0.0,0.0,0.0,0.0,0.0,0.0,0.0,0.0,0.0,0.0,0.0,0.0,0.0,0.0017366521060466,-0.0030991276726126,-0.0039678588509559,0.0,0.0,0.0,0.0,0.0,0.0,0.0,0.0,0.0,-0.1247804537415504,0.0338353551924228,0.9865734577178956,0.0,0.0,0.0,0.0,0.0,0.0,0.0,0.0,0.0
149,1690899087.180564,530154,1690899087,180249691,livox_frame,0.0,0.0,0.0,0.0,0.0,0.0,0.0,0.0,0.0,0.0,0.0,0.0,0.0,0.005997709929943,-0.0116212433204054,-0.0071636512875556,0.0,0.0,0.0,0.0,0.0,0.0,0.0,0.0,0.0,-0.1062257662415504,0.0301732439547777,0.9729015827178956,0.0,0.0,0.0,0.0,0.0,0.0,0.0,0.0,0.0
150,1690899087.184679,530155,1690899087,184451342,livox_frame,0.0,0.0,0.0,0.0,0.0,0.0,0.0,0.0,0.0,0.0,0.0,0.0,0.0,0.005997709929943,-0.0116212433204054,-0.0071636512875556,0.0,0.0,0.0,0.0,0.0,0.0,0.0,0.0,0.0,-0.1062257662415504,0.0301732439547777,0.9729015827178956,0.0,0.0,0.0,0.0,0.0,0.0,0.0,0.0,0.0
151,1690899087.1905131,530156,1690899087,190222025,livox_frame,0.0,0.0,0.0,0.0,0.0,0.0,0.0,0.0,0.0,0.0,0.0,0.0,0.0,0.0155850909650325,-0.007360185496509,-0.009294182062149,0.0,0.0,0.0,0.0,0.0,0.0,0.0,0.0,0.0,-0.0881593599915504,0.0243138689547777,0.9956066608428956,0.0,0.0,0.0,0.0,0.0,0.0,0.0,0.0,0.0
152,1690899087.194748,530157,1690899087,194442987,livox_frame,0.0,0.0,0.0,0.0,0.0,0.0,0.0,0.0,0.0,0.0,0.0,0.0,0.0,0.0155850909650325,-0.007360185496509,-0.009294182062149,0.0,0.0,0.0,0.0,0.0,0.0,0.0,0.0,0.0,-0.0881593599915504,0.0243138689547777,0.9956066608428956,0.0,0.0,0.0,0.0,0.0,0.0,0.0,0.0,0.0
153,1690899087.2006032,530158,1690899087,200330973,livox_frame,0.0,0.0,0.0,0.0,0.0,0.0,0.0,0.0,0.0,0.0,0.0,0.0,0.0,0.0038671791553497,0.0011619310826063,-0.0071636512875556,0.0,0.0,0.0,0.0,0.0,0.0,0.0,0.0,0.0,-0.1113527193665504,0.0301732439547777,0.9997570514678956,0.0,0.0,0.0,0.0,0.0,0.0,0.0,0.0,0.0
154,1690899087.2048955,530159,1690899087,204675913,livox_frame,0.0,0.0,0.0,0.0,0.0,0.0,0.0,0.0,0.0,0.0,0.0,0.0,0.0,0.0038671791553497,0.0011619310826063,-0.0071636512875556,0.0,0.0,0.0,0.0,0.0,0.0,0.0,0.0,0.0,-0.1113527193665504,0.0301732439547777,0.9997570514678956,0.0,0.0,0.0,0.0,0.0,0.0,0.0,0.0,0.0
155,1690899087.2106287,530160,1690899087,210220575,livox_frame,0.0,0.0,0.0,0.0,0.0,0.0,0.0,0.0,0.0,0.0,0.0,0.0,0.0,0.0028019174933433,0.0032924599945545,-0.0071636512875556,0.0,0.0,0.0,0.0,0.0,0.0,0.0,0.0,0.0,-0.125512883067131,0.0296849627047777,0.9746105670928956,0.0,0.0,0.0,0.0,0.0,0.0,0.0,0.0,0.0
156,1690899087.2147374,530161,1690899087,214542150,livox_frame,0.0,0.0,0.0,0.0,0.0,0.0,0.0,0.0,0.0,0.0,0.0,0.0,0.0,0.0028019174933433,0.0032924599945545,-0.0071636512875556,0.0,0.0,0.0,0.0,0.0,0.0,0.0,0.0,0.0,-0.125512883067131,0.0296849627047777,0.9746105670928956,0.0,0.0,0.0,0.0,0.0,0.0,0.0,0.0,0.0
157,1690899087.220531,530162,1690899087,220332384,livox_frame,0.0,0.0,0.0,0.0,0.0,0.0,0.0,0.0,0.0,0.0,0.0,0.0,0.0,0.0113240331411361,-0.0020338632166385,-0.0060983896255493,0.0,0.0,0.0,0.0,0.0,0.0,0.0,0.0,0.0,-0.0996339693665504,0.0252904314547777,0.9738781452178956,0.0,0.0,0.0,0.0,0.0,0.0,0.0,0.0,0.0
158,1690899087.2248435,530163,1690899087,224635363,livox_frame,0.0,0.0,0.0,0.0,0.0,0.0,0.0,0.0,0.0,0.0,0.0,0.0,0.0,0.0113240331411361,-0.0020338632166385,-0.0060983896255493,0.0,0.0,0.0,0.0,0.0,0.0,0.0,0.0,0.0,-0.0996339693665504,0.0252904314547777,0.9738781452178956,0.0,0.0,0.0,0.0,0.0,0.0,0.0,0.0,0.0
159,1690899087.2305963,530164,1690899087,230330706,livox_frame,0.0,0.0,0.0,0.0,0.0,0.0,0.0,0.0,0.0,0.0,0.0,0.0,0.0,0.0091935023665428,-0.0126865077763795,-0.009294182062149,0.0,0.0,0.0,0.0,0.0,0.0,0.0,0.0,0.0,-0.1003663912415504,0.0274876970797777,0.9995129108428956,0.0,0.0,0.0,0.0,0.0,0.0,0.0,0.0,0.0
160,1690899087.234864,530165,1690899087,234676361,livox_frame,0.0,0.0,0.0,0.0,0.0,0.0,0.0,0.0,0.0,0.0,0.0,0.0,0.0,0.0091935023665428,-0.0126865077763795,-0.009294182062149,0.0,0.0,0.0,0.0,0.0,0.0,0.0,0.0,0.0,-0.1003663912415504,0.0274876970797777,0.9995129108428956,0.0,0.0,0.0,0.0,0.0,0.0,0.0,0.0,0.0
161,1690899087.2404382,530166,1690899087,240209579,livox_frame,0.0,0.0,0.0,0.0,0.0,0.0,0.0,0.0,0.0,0.0,0.0,0.0,0.0,0.0017366521060466,-0.0084254499524831,-0.0039678588509559,0.0,0.0,0.0,0.0,0.0,0.0,0.0,0.0,0.0,-0.1196535006165504,0.0301732439547777,0.9880383014678956,0.0,0.0,0.0,0.0,0.0,0.0,0.0,0.0,0.0
162,1690899087.2448046,530167,1690899087,244527578,livox_frame,0.0,0.0,0.0,0.0,0.0,0.0,0.0,0.0,0.0,0.0,0.0,0.0,0.0,0.0017366521060466,-0.0084254499524831,-0.0039678588509559,0.0,0.0,0.0,0.0,0.0,0.0,0.0,0.0,0.0,-0.1196535006165504,0.0301732439547777,0.9880383014678956,0.0,0.0,0.0,0.0,0.0,0.0,0.0,0.0,0.0
163,1690899087.2506175,530168,1690899087,250293970,livox_frame,0.0,0.0,0.0,0.0,0.0,0.0,0.0,0.0,0.0,0.0,0.0,0.0,0.0,0.0081282369792461,9.666569530963898e-05,-0.0071636512875556,0.0,0.0,0.0,0.0,0.0,0.0,0.0,0.0,0.0,-0.1042726412415504,0.0301732439547777,0.9724133014678956,0.0,0.0,0.0,0.0,0.0,0.0,0.0,0.0,0.0
164,1690899087.254768,530169,1690899087,254528522,livox_frame,0.0,0.0,0.0,0.0,0.0,0.0,0.0,0.0,0.0,0.0,0.0,0.0,0.0,0.0081282369792461,9.666569530963898e-05,-0.0071636512875556,0.0,0.0,0.0,0.0,0.0,0.0,0.0,0.0,0.0,-0.1042726412415504,0.0301732439547777,0.9724133014678956,0.0,0.0,0.0,0.0,0.0,0.0,0.0,0.0,0.0
165,1690899087.26069,530170,1690899087,260219336,livox_frame,0.0,0.0,0.0,0.0,0.0,0.0,0.0,0.0,0.0,0.0,0.0,0.0,0.0,0.0134545601904392,0.0011619310826063,-0.0082289204001426,0.0,0.0,0.0,0.0,0.0,0.0,0.0,0.0,0.0,-0.0967042818665504,0.0257787127047777,0.9980480670928956,0.0,0.0,0.0,0.0,0.0,0.0,0.0,0.0,0.0
166,1690899087.2648106,530171,1690899087,264575005,livox_frame,0.0,0.0,0.0,0.0,0.0,0.0,0.0,0.0,0.0,0.0,0.0,0.0,0.0,0.0134545601904392,0.0011619310826063,-0.0082289204001426,0.0,0.0,0.0,0.0,0.0,0.0,0.0,0.0,0.0,-0.0967042818665504,0.0257787127047777,0.9980480670928956,0.0,0.0,0.0,0.0,0.0,0.0,0.0,0.0,0.0
167,1690899087.2705278,530172,1690899087,270333529,livox_frame,0.0,0.0,0.0,0.0,0.0,0.0,0.0,0.0,0.0,0.0,0.0,0.0,0.0,0.0028019174933433,-0.0030991276726126,-0.0050331279635429,0.0,0.0,0.0,0.0,0.0,0.0,0.0,0.0,0.0,-0.1208742037415504,0.0274876970797777,0.9895031452178956,0.0,0.0,0.0,0.0,0.0,0.0,0.0,0.0,0.0
168,1690899087.274848,530173,1690899087,274622917,livox_frame,0.0,0.0,0.0,0.0,0.0,0.0,0.0,0.0,0.0,0.0,0.0,0.0,0.0,0.0028019174933433,-0.0030991276726126,-0.0050331279635429,0.0,0.0,0.0,0.0,0.0,0.0,0.0,0.0,0.0,-0.1208742037415504,0.0274876970797777,0.9895031452178956,0.0,0.0,0.0,0.0,0.0,0.0,0.0,0.0,0.0
169,1690899087.2805698,530174,1690899087,280230284,livox_frame,0.0,0.0,0.0,0.0,0.0,0.0,0.0,0.0,0.0,0.0,0.0,0.0,0.0,0.005997709929943,-0.0126865077763795,-0.009294182062149,0.0,0.0,0.0,0.0,0.0,0.0,0.0,0.0,0.0,-0.1194093599915504,0.0335912145674228,0.9758312702178956,0.0,0.0,0.0,0.0,0.0,0.0,0.0,0.0,0.0
170,1690899087.284728,530175,1690899087,284512758,livox_frame,0.0,0.0,0.0,0.0,0.0,0.0,0.0,0.0,0.0,0.0,0.0,0.0,0.0,0.005997709929943,-0.0126865077763795,-0.009294182062149,0.0,0.0,0.0,0.0,0.0,0.0,0.0,0.0,0.0,-0.1194093599915504,0.0335912145674228,0.9758312702178956,0.0,0.0,0.0,0.0,0.0,0.0,0.0,0.0,0.0
171,1690899087.2905722,530176,1690899087,290269852,livox_frame,0.0,0.0,0.0,0.0,0.0,0.0,0.0,0.0,0.0,0.0,0.0,0.0,0.0,0.0134545601904392,-0.0084254499524831,-0.0103594437241554,0.0,0.0,0.0,0.0,0.0,0.0,0.0,0.0,0.0,-0.0884035006165504,0.0248021502047777,0.9929211139678956,0.0,0.0,0.0,0.0,0.0,0.0,0.0,0.0,0.0
172,1690899087.2947123,530177,1690899087,294492006,livox_frame,0.0,0.0,0.0,0.0,0.0,0.0,0.0,0.0,0.0,0.0,0.0,0.0,0.0,0.0134545601904392,-0.0084254499524831,-0.0103594437241554,0.0,0.0,0.0,0.0,0.0,0.0,0.0,0.0,0.0,-0.0884035006165504,0.0248021502047777,0.9929211139678956,0.0,0.0,0.0,0.0,0.0,0.0,0.0,0.0,0.0
173,1690899087.300546,530178,1690899087,300283670,livox_frame,0.0,0.0,0.0,0.0,0.0,0.0,0.0,0.0,0.0,0.0,0.0,0.0,0.0,0.0081282369792461,-0.0020338632166385,-0.0071636512875556,0.0,0.0,0.0,0.0,0.0,0.0,0.0,0.0,0.0,-0.1020753756165504,0.0282201189547777,1.0012218952178955,0.0,0.0,0.0,0.0,0.0,0.0,0.0,0.0,0.0
174,1690899087.3047037,530179,1690899087,304474831,livox_frame,0.0,0.0,0.0,0.0,0.0,0.0,0.0,0.0,0.0,0.0,0.0,0.0,0.0,0.0081282369792461,-0.0020338632166385,-0.0071636512875556,0.0,0.0,0.0,0.0,0.0,0.0,0.0,0.0,0.0,-0.1020753756165504,0.0282201189547777,1.0012218952178955,0.0,0.0,0.0,0.0,0.0,0.0,0.0,0.0,0.0
175,1690899087.3105404,530180,1690899087,310332298,livox_frame,0.0,0.0,0.0,0.0,0.0,0.0,0.0,0.0,0.0,0.0,0.0,0.0,0.0,0.00067138671875,0.0054229889065027,-0.0060983896255493,0.0,0.0,0.0,0.0,0.0,0.0,0.0,0.0,0.0,-0.127221867442131,0.0348119176924228,0.9826672077178956,0.0,0.0,0.0,0.0,0.0,0.0,0.0,0.0,0.0
176,1690899087.314817,530181,1690899087,314637661,livox_frame,0.0,0.0,0.0,0.0,0.0,0.0,0.0,0.0,0.0,0.0,0.0,0.0,0.0,0.0049324445426464,-0.0009685987606644,-0.0071636512875556,0.0,0.0,0.0,0.0,0.0,0.0,0.0,0.0,0.0,-0.1179445162415504,0.0321263708174228,0.9724133014678956,0.0,0.0,0.0,0.0,0.0,0.0,0.0,0.0,0.0
177,1690899087.3205616,530182,1690899087,320332050,livox_frame,0.0,0.0,0.0,0.0,0.0,0.0,0.0,0.0,0.0,0.0,0.0,0.0,0.0,0.0081282369792461,-0.0030991276726126,-0.0060983896255493,0.0,0.0,0.0,0.0,0.0,0.0,0.0,0.0,0.0,-0.1028077974915504,0.0213841814547777,0.9692394733428956,0.0,0.0,0.0,0.0,0.0,0.0,0.0,0.0,0.0
178,1690899087.3250184,530183,1690899087,324712276,livox_frame,0.0,0.0,0.0,0.0,0.0,0.0,0.0,0.0,0.0,0.0,0.0,0.0,0.0,0.0113240331411361,-0.007360185496509,-0.0071636512875556,0.0,0.0,0.0,0.0,0.0,0.0,0.0,0.0,0.0,-0.0932863131165504,0.0248021502047777,0.9917004108428956,0.0,0.0,0.0,0.0,0.0,0.0,0.0,0.0,0.0
179,1690899087.33063,530184,1690899087,330237627,livox_frame,0.0,0.0,0.0,0.0,0.0,0.0,0.0,0.0,0.0,0.0,0.0,0.0,0.0,0.0113240331411361,-0.0137517722323536,-0.0103594437241554,0.0,0.0,0.0,0.0,0.0,0.0,0.0,0.0,0.0,-0.0962160006165504,0.0284642595797777,1.0012218952178955,0.0,0.0,0.0,0.0,0.0,0.0,0.0,0.0,0.0
180,1690899087.33479,530185,1690899087,334595680,livox_frame,0.0,0.0,0.0,0.0,0.0,0.0,0.0,0.0,0.0,0.0,0.0,0.0,0.0,0.0070629753172397,-0.0105559788644313,-0.0071636512875556,0.0,0.0,0.0,0.0,0.0,0.0,0.0,0.0,0.0,-0.1050050631165504,0.0235814470797777,0.9909679889678956,0.0,0.0,0.0,0.0,0.0,0.0,0.0,0.0,0.0
181,1690899087.340562,530186,1690899087,340335608,livox_frame,0.0,0.0,0.0,0.0,0.0,0.0,0.0,0.0,0.0,0.0,0.0,0.0,0.0,0.0017366521060466,-0.007360185496509,-0.0071636512875556,0.0,0.0,0.0,0.0,0.0,0.0,0.0,0.0,0.0,-0.1186769381165504,0.0318822301924228,0.9995129108428956,0.0,0.0,0.0,0.0,0.0,0.0,0.0,0.0,0.0
182,1690899087.3448775,530187,1690899087,344616890,livox_frame,0.0,0.0,0.0,0.0,0.0,0.0,0.0,0.0,0.0,0.0,0.0,0.0,0.0,0.0028019174933433,-0.0052296565845608,-0.0060983896255493,0.0,0.0,0.0,0.0,0.0,0.0,0.0,0.0,0.0,-0.1220949068665504,0.0353001989424228,0.9831554889678956,0.0,0.0,0.0,0.0,0.0,0.0,0.0,0.0,0.0
183,1690899087.350413,530188,1690899087,350201607,livox_frame,0.0,0.0,0.0,0.0,0.0,0.0,0.0,0.0,0.0,0.0,0.0,0.0,0.0,0.0070629753172397,9.666569530963898e-05,-0.0071636512875556,0.0,0.0,0.0,0.0,0.0,0.0,0.0,0.0,0.0,-0.1067140474915504,0.0282201189547777,0.9704601764678956,0.0,0.0,0.0,0.0,0.0,0.0,0.0,0.0,0.0
184,1690899087.3548112,530189,1690899087,354593039,livox_frame,0.0,0.0,0.0,0.0,0.0,0.0,0.0,0.0,0.0,0.0,0.0,0.0,0.0,0.0123892948031425,0.0064882524311542,-0.009294182062149,0.0,0.0,0.0,0.0,0.0,0.0,0.0,0.0,0.0,-0.0942628756165504,0.0243138689547777,0.9787609577178956,0.0,0.0,0.0,0.0,0.0,0.0,0.0,0.0,0.0
185,1690899087.3604052,530190,1690899087,360199928,livox_frame,0.0,0.0,0.0,0.0,0.0,0.0,0.0,0.0,0.0,0.0,0.0,0.0,0.0,0.0113240331411361,0.004357723519206,-0.0082289204001426,0.0,0.0,0.0,0.0,0.0,0.0,0.0,0.0,0.0,-0.0945070162415504,0.0284642595797777,1.0000011920928955,0.0,0.0,0.0,0.0,0.0,0.0,0.0,0.0,0.0
186,1690899087.3646872,530191,1690899087,364462614,livox_frame,0.0,0.0,0.0,0.0,0.0,0.0,0.0,0.0,0.0,0.0,0.0,0.0,0.0,0.0091935023665428,9.666569530963898e-05,-0.009294182062149,0.0,0.0,0.0,0.0,0.0,0.0,0.0,0.0,0.0,-0.0945070162415504,0.0284642595797777,1.0000011920928955,0.0,0.0,0.0,0.0,0.0,0.0,0.0,0.0,0.0
187,1690899087.3705456,530192,1690899087,370267630,livox_frame,0.0,0.0,0.0,0.0,0.0,0.0,0.0,0.0,0.0,0.0,0.0,0.0,0.0,0.0038671791553497,-0.0009685987606644,-0.0060983896255493,0.0,0.0,0.0,0.0,0.0,0.0,0.0,0.0,0.0,-0.1135499849915504,0.0260228533297777,0.9921886920928956,0.0,0.0,0.0,0.0,0.0,0.0,0.0,0.0,0.0
188,1690899087.3747654,530193,1690899087,374538183,livox_frame,0.0,0.0,0.0,0.0,0.0,0.0,0.0,0.0,0.0,0.0,0.0,0.0,0.0,0.00067138671875,-0.0062949210405349,-0.0039678588509559,0.0,0.0,0.0,0.0,0.0,0.0,0.0,0.0,0.0,-0.128198429942131,0.0348119176924228,0.9914562702178956,0.0,0.0,0.0,0.0,0.0,0.0,0.0,0.0,0.0
189,1690899087.3805437,530194,1690899087,380332947,livox_frame,0.0,0.0,0.0,0.0,0.0,0.0,0.0,0.0,0.0,0.0,0.0,0.0,0.0,0.0049324445426464,-0.0116212433204054,-0.0082289204001426,0.0,0.0,0.0,0.0,0.0,0.0,0.0,0.0,0.0,-0.1245363131165504,0.0331029333174228,0.9770519733428956,0.0,0.0,0.0,0.0,0.0,0.0,0.0,0.0,0.0
190,1690899087.3848708,530195,1690899087,384621382,livox_frame,0.0,0.0,0.0,0.0,0.0,0.0,0.0,0.0,0.0,0.0,0.0,0.0,0.0,0.0049324445426464,-0.0116212433204054,-0.0060983896255493,0.0,0.0,0.0,0.0,0.0,0.0,0.0,0.0,0.0,-0.1062257662415504,0.0248021502047777,0.9682629108428956,0.0,0.0,0.0,0.0,0.0,0.0,0.0,0.0,0.0
191,1690899087.3904588,530196,1690899087,390215874,livox_frame,0.0,0.0,0.0,0.0,0.0,0.0,0.0,0.0,0.0,0.0,0.0,0.0,0.0,0.0123892948031425,-0.0062949210405349,-0.0071636512875556,0.0,0.0,0.0,0.0,0.0,0.0,0.0,0.0,0.0,-0.0935304537415504,0.0282201189547777,0.9853527545928956,0.0,0.0,0.0,0.0,0.0,0.0,0.0,0.0,0.0
192,1690899087.3947694,530197,1690899087,394536495,livox_frame,0.0,0.0,0.0,0.0,0.0,0.0,0.0,0.0,0.0,0.0,0.0,0.0,0.0,0.0134545601904392,-0.0052296565845608,-0.0103594437241554,0.0,0.0,0.0,0.0,0.0,0.0,0.0,0.0,0.0,-0.0918214693665504,0.0282201189547777,1.0000011920928955,0.0,0.0,0.0,0.0,0.0,0.0,0.0,0.0,0.0
193,1690899087.4005768,530198,1690899087,400250912,livox_frame,0.0,0.0,0.0,0.0,0.0,0.0,0.0,0.0,0.0,0.0,0.0,0.0,0.0,0.0123892948031425,-0.0020338632166385,-0.009294182062149,0.0,0.0,0.0,0.0,0.0,0.0,0.0,0.0,0.0,-0.0935304537415504,0.0228490252047777,1.0009777545928955,0.0,0.0,0.0,0.0,0.0,0.0,0.0,0.0,0.0
194,1690899087.4046798,530199,1690899087,404478312,livox_frame,0.0,0.0,0.0,0.0,0.0,0.0,0.0,0.0,0.0,0.0,0.0,0.0,0.0,0.0070629753172397,0.004357723519206,-0.0050331279635429,0.0,0.0,0.0,0.0,0.0,0.0,0.0,0.0,0.0,-0.1145265474915504,0.0287084002047777,0.9970715045928956,0.0,0.0,0.0,0.0,0.0,0.0,0.0,0.0,0.0
195,1690899087.4105392,530200,1690899087,410332918,livox_frame,0.0,0.0,0.0,0.0,0.0,0.0,0.0,0.0,0.0,0.0,0.0,0.0,0.0,0.0017366521060466,0.0054229889065027,-0.0050331279635429,0.0,0.0,0.0,0.0,0.0,0.0,0.0,0.0,0.0,-0.128442570567131,0.0370091833174228,0.9917004108428956,0.0,0.0,0.0,0.0,0.0,0.0,0.0,0.0,0.0
196,1690899087.4148693,530201,1690899087,414664030,livox_frame,0.0,0.0,0.0,0.0,0.0,0.0,0.0,0.0,0.0,0.0,0.0,0.0,0.0,0.0028019174933433,-0.0020338632166385,-0.0071636512875556,0.0,0.0,0.0,0.0,0.0,0.0,0.0,0.0,0.0,-0.1208742037415504,0.0304173845797777,0.9707043170928956,0.0,0.0,0.0,0.0,0.0,0.0,0.0,0.0,0.0
197,1690899087.4205737,530202,1690899087,420333385,livox_frame,0.0,0.0,0.0,0.0,0.0,0.0,0.0,0.0,0.0,0.0,0.0,0.0,0.0,0.005997709929943,-0.0030991276726126,-0.0060983896255493,0.0,0.0,0.0,0.0,0.0,0.0,0.0,0.0,0.0,-0.1103761568665504,0.0265111345797777,0.9667980670928956,0.0,0.0,0.0,0.0,0.0,0.0,0.0,0.0,0.0
198,1690899087.4247632,530203,1690899087,424554348,livox_frame,0.0,0.0,0.0,0.0,0.0,0.0,0.0,0.0,0.0,0.0,0.0,0.0,0.0,0.0134545601904392,-0.007360185496509,-0.009294182062149,0.0,0.0,0.0,0.0,0.0,0.0,0.0,0.0,0.0,-0.0959718599915504,0.0294408220797777,0.9868175983428956,0.0,0.0,0.0,0.0,0.0,0.0,0.0,0.0,0.0
199,1690899087.4305243,530204,1690899087,430333853,livox_frame,0.0,0.0,0.0,0.0,0.0,0.0,0.0,0.0,0.0,0.0,0.0,0.0,0.0,0.0134545601904392,-0.0137517722323536,-0.0103594437241554,0.0,0.0,0.0,0.0,0.0,0.0,0.0,0.0,0.0,-0.0927980318665504,0.0257787127047777,0.9951183795928956,0.0,0.0,0.0,0.0,0.0,0.0,0.0,0.0,0.0
200,1690899087.4347856,530205,1690899087,434610367,livox_frame,0.0,0.0,0.0,0.0,0.0,0.0,0.0,0.0,0.0,0.0,0.0,0.0,0.0,0.0070629753172397,-0.0094907144084572,-0.0082289204001426,0.0,0.0,0.0,0.0,0.0,0.0,0.0,0.0,0.0,-0.0993898287415504,0.0245580095797777,0.9965832233428956,0.0,0.0,0.0,0.0,0.0,0.0,0.0,0.0,0.0
201,1690899087.4405954,530206,1690899087,440281868,livox_frame,0.0,0.0,0.0,0.0,0.0,0.0,0.0,0.0,0.0,0.0,0.0,0.0,0.0,0.0049324445426464,-0.007360185496509,-0.0071636512875556,0.0,0.0,0.0,0.0,0.0,0.0,0.0,0.0,0.0,-0.1140382662415504,0.0340794958174228,1.0053722858428955,0.0,0.0,0.0,0.0,0.0,0.0,0.0,0.0,0.0
202,1690899087.4448931,530207,1690899087,444597006,livox_frame,0.0,0.0,0.0,0.0,0.0,0.0,0.0,0.0,0.0,0.0,0.0,0.0,0.0,0.0028019174933433,-0.0041643921285867,-0.0071636512875556,0.0,0.0,0.0,0.0,0.0,0.0,0.0,0.0,0.0,-0.1208742037415504,0.0340794958174228,0.9890148639678956,0.0,0.0,0.0,0.0,0.0,0.0,0.0,0.0,0.0
203,1690899087.4507034,530208,1690899087,450221539,livox_frame,0.0,0.0,0.0,0.0,0.0,0.0,0.0,0.0,0.0,0.0,0.0,0.0,0.0,0.0070629753172397,0.0022271946072578,-0.0082289204001426,0.0,0.0,0.0,0.0,0.0,0.0,0.0,0.0,0.0,-0.1128175631165504,0.0287084002047777,0.9724133014678956,0.0,0.0,0.0,0.0,0.0,0.0,0.0,0.0,0.0
204,1690899087.4548087,530209,1690899087,454545498,livox_frame,0.0,0.0,0.0,0.0,0.0,0.0,0.0,0.0,0.0,0.0,0.0,0.0,0.0,0.0123892948031425,0.0086187813431024,-0.009294182062149,0.0,0.0,0.0,0.0,0.0,0.0,0.0,0.0,0.0,-0.1010988131165504,0.0279759783297777,0.9731457233428956,0.0,0.0,0.0,0.0,0.0,0.0,0.0,0.0,0.0
205,1690899087.460566,530210,1690899087,460275412,livox_frame,0.0,0.0,0.0,0.0,0.0,0.0,0.0,0.0,0.0,0.0,0.0,0.0,0.0,0.0123892948031425,0.0064882524311542,-0.0071636512875556,0.0,0.0,0.0,0.0,0.0,0.0,0.0,0.0,0.0,-0.0918214693665504,0.0282201189547777,0.9934093952178956,0.0,0.0,0.0,0.0,0.0,0.0,0.0,0.0,0.0
206,1690899087.4648638,530211,1690899087,464499235,livox_frame,0.0,0.0,0.0,0.0,0.0,0.0,0.0,0.0,0.0,0.0,0.0,0.0,0.0,0.0102587677538394,-0.0020338632166385,-0.0103594437241554,0.0,0.0,0.0,0.0,0.0,0.0,0.0,0.0,0.0,-0.0949952974915504,0.0208959002047777,0.9941418170928956,0.0,0.0,0.0,0.0,0.0,0.0,0.0,0.0,0.0
207,1690899087.4703846,530212,1690899087,470197678,livox_frame,0.0,0.0,0.0,0.0,0.0,0.0,0.0,0.0,0.0,0.0,0.0,0.0,0.0,0.0049324445426464,-0.0041643921285867,-0.0060983896255493,0.0,0.0,0.0,0.0,0.0,0.0,0.0,0.0,0.0,-0.1076906099915504,0.0260228533297777,0.9941418170928956,0.0,0.0,0.0,0.0,0.0,0.0,0.0,0.0,0.0
208,1690899087.474779,530213,1690899087,474561691,livox_frame,0.0,0.0,0.0,0.0,0.0,0.0,0.0,0.0,0.0,0.0,0.0,0.0,0.0,0.0028019174933433,-0.0062949210405349,-0.0029025971889495,0.0,0.0,0.0,0.0,0.0,0.0,0.0,0.0,0.0,-0.1211183443665504,0.0335912145674228,0.9985363483428956,0.0,0.0,0.0,0.0,0.0,0.0,0.0,0.0,0.0
209,1690899087.4805906,530214,1690899087,480336428,livox_frame,0.0,0.0,0.0,0.0,0.0,0.0,0.0,0.0,0.0,0.0,0.0,0.0,0.0,0.0038671791553497,-0.0126865077763795,-0.0060983896255493,0.0,0.0,0.0,0.0,0.0,0.0,0.0,0.0,0.0,-0.126977726817131,0.0291966814547777,0.9794933795928956,0.0,0.0,0.0,0.0,0.0,0.0,0.0,0.0,0.0
210,1690899087.4848528,530215,1690899087,484635592,livox_frame,0.0,0.0,0.0,0.0,0.0,0.0,0.0,0.0,0.0,0.0,0.0,0.0,0.0,0.0028019174933433,-0.0094907144084572,-0.0060983896255493,0.0,0.0,0.0,0.0,0.0,0.0,0.0,0.0,0.0,-0.1133058443665504,0.0304173845797777,0.9719250202178956,0.0,0.0,0.0,0.0,0.0,0.0,0.0,0.0,0.0
211,1690899087.490553,530216,1690899087,490286827,livox_frame,0.0,0.0,0.0,0.0,0.0,0.0,0.0,0.0,0.0,0.0,0.0,0.0,0.0,0.0091935023665428,-0.0052296565845608,-0.0071636512875556,0.0,0.0,0.0,0.0,0.0,0.0,0.0,0.0,0.0,-0.0986574068665504,0.0284642595797777,0.9792492389678956,0.0,0.0,0.0,0.0,0.0,0.0,0.0,0.0,0.0
212,1690899087.4947991,530217,1690899087,494531155,livox_frame,0.0,0.0,0.0,0.0,0.0,0.0,0.0,0.0,0.0,0.0,0.0,0.0,0.0,0.0134545601904392,-0.0041643921285867,-0.0082289204001426,0.0,0.0,0.0,0.0,0.0,0.0,0.0,0.0,0.0,-0.0903566256165504,0.0238255877047777,0.9943859577178956,0.0,0.0,0.0,0.0,0.0,0.0,0.0,0.0,0.0
213,1690899087.5006928,530218,1690899087,500235558,livox_frame,0.0,0.0,0.0,0.0,0.0,0.0,0.0,0.0,0.0,0.0,0.0,0.0,0.0,0.0123892948031425,-0.0009685987606644,-0.0082289204001426,0.0,0.0,0.0,0.0,0.0,0.0,0.0,0.0,0.0,-0.0884035006165504,0.0238255877047777,0.9985363483428956,0.0,0.0,0.0,0.0,0.0,0.0,0.0,0.0,0.0
214,1690899087.5046597,530219,1690899087,504454136,livox_frame,0.0,0.0,0.0,0.0,0.0,0.0,0.0,0.0,0.0,0.0,0.0,0.0,0.0,0.0081282369792461,0.0054229889065027,-0.0060983896255493,0.0,0.0,0.0,0.0,0.0,0.0,0.0,0.0,0.0,-0.1091554537415504,0.0291966814547777,0.9995129108428956,0.0,0.0,0.0,0.0,0.0,0.0,0.0,0.0,0.0
215,1690899087.510629,530220,1690899087,510253668,livox_frame,0.0,0.0,0.0,0.0,0.0,0.0,0.0,0.0,0.0,0.0,0.0,0.0,0.0,0.0028019174933433,0.0064882524311542,-0.0060983896255493,0.0,0.0,0.0,0.0,0.0,0.0,0.0,0.0,0.0,-0.1218507662415504,0.0311498064547777,0.9970715045928956,0.0,0.0,0.0,0.0,0.0,0.0,0.0,0.0,0.0
216,1690899087.514892,530221,1690899087,514485598,livox_frame,0.0,0.0,0.0,0.0,0.0,0.0,0.0,0.0,0.0,0.0,0.0,0.0,0.0,0.0017366521060466,9.666569530963898e-05,-0.0071636512875556,0.0,0.0,0.0,0.0,0.0,0.0,0.0,0.0,0.0,-0.127466008067131,0.0306615252047777,0.9755871295928956,0.0,0.0,0.0,0.0,0.0,0.0,0.0,0.0,0.0
217,1690899087.520566,530222,1690899087,520334005,livox_frame,0.0,0.0,0.0,0.0,0.0,0.0,0.0,0.0,0.0,0.0,0.0,0.0,0.0,0.0017366521060466,-0.0020338632166385,-0.0039678588509559,0.0,0.0,0.0,0.0,0.0,0.0,0.0,0.0,0.0,-0.1179445162415504,0.0301732439547777,0.9692394733428956,0.0,0.0,0.0,0.0,0.0,0.0,0.0,0.0,0.0
218,1690899087.5248675,530223,1690899087,524651527,livox_frame,0.0,0.0,0.0,0.0,0.0,0.0,0.0,0.0,0.0,0.0,0.0,0.0,0.0,0.0113240331411361,-0.0062949210405349,-0.0082289204001426,0.0,0.0,0.0,0.0,0.0,0.0,0.0,0.0,0.0,-0.1020753756165504,0.0267552752047777,0.9799816608428956,0.0,0.0,0.0,0.0,0.0,0.0,0.0,0.0,0.0
219,1690899087.5303848,530224,1690899087,530174017,livox_frame,0.0,0.0,0.0,0.0,0.0,0.0,0.0,0.0,0.0,0.0,0.0,0.0,0.0,0.0113240331411361,-0.0116212433204054,-0.009294182062149,0.0,0.0,0.0,0.0,0.0,0.0,0.0,0.0,0.0,-0.0908449068665504,0.0233373064547777,0.9921886920928956,0.0,0.0,0.0,0.0,0.0,0.0,0.0,0.0,0.0
220,1690899087.5345426,530225,1690899087,534341335,livox_frame,0.0,0.0,0.0,0.0,0.0,0.0,0.0,0.0,0.0,0.0,0.0,0.0,0.0,0.0081282369792461,-0.0126865077763795,-0.0082289204001426,0.0,0.0,0.0,0.0,0.0,0.0,0.0,0.0,0.0,-0.0971925631165504,0.0277318377047777,0.9970715045928956,0.0,0.0,0.0,0.0,0.0,0.0,0.0,0.0,0.0
221,1690899087.5405583,530226,1690899087,540334940,livox_frame,0.0,0.0,0.0,0.0,0.0,0.0,0.0,0.0,0.0,0.0,0.0,0.0,0.0,0.0081282369792461,-0.0062949210405349,-0.0082289204001426,0.0,0.0,0.0,0.0,0.0,0.0,0.0,0.0,0.0,-0.1084230318665504,0.0306615252047777,0.9992687702178956,0.0,0.0,0.0,0.0,0.0,0.0,0.0,0.0,0.0
222,1690899087.5449817,530227,1690899087,544640064,livox_frame,0.0,0.0,0.0,0.0,0.0,0.0,0.0,0.0,0.0,0.0,0.0,0.0,0.0,0.0028019174933433,-0.0052296565845608,-0.0060983896255493,0.0,0.0,0.0,0.0,0.0,0.0,0.0,0.0,0.0,-0.1198976412415504,0.0301732439547777,0.9980480670928956,0.0,0.0,0.0,0.0,0.0,0.0,0.0,0.0,0.0
223,1690899087.5506327,530228,1690899087,550282955,livox_frame,0.0,0.0,0.0,0.0,0.0,0.0,0.0,0.0,0.0,0.0,0.0,0.0,0.0,0.0038671791553497,-0.0009685987606644,-0.0060983896255493,0.0,0.0,0.0,0.0,0.0,0.0,0.0,0.0,0.0,-0.1194093599915504,0.0328587926924228,0.9729015827178956,0.0,0.0,0.0,0.0,0.0,0.0,0.0,0.0,0.0
224,1690899087.5547235,530229,1690899087,554447651,livox_frame,0.0,0.0,0.0,0.0,0.0,0.0,0.0,0.0,0.0,0.0,0.0,0.0,0.0,0.0081282369792461,0.0064882524311542,-0.0071636512875556,0.0,0.0,0.0,0.0,0.0,0.0,0.0,0.0,0.0,-0.1096437349915504,0.0321263708174228,0.9714367389678956,0.0,0.0,0.0,0.0,0.0,0.0,0.0,0.0,0.0
225,1690899087.5605612,530230,1690899087,560334444,livox_frame,0.0,0.0,0.0,0.0,0.0,0.0,0.0,0.0,0.0,0.0,0.0,0.0,0.0,0.0134545601904392,0.0032924599945545,-0.0071636512875556,0.0,0.0,0.0,0.0,0.0,0.0,0.0,0.0,0.0,-0.0945070162415504,0.0252904314547777,0.9868175983428956,0.0,0.0,0.0,0.0,0.0,0.0,0.0,0.0,0.0
226,1690899087.5648825,530231,1690899087,564677715,livox_frame,0.0,0.0,0.0,0.0,0.0,0.0,0.0,0.0,0.0,0.0,0.0,0.0,0.0,0.0113240331411361,-0.0009685987606644,-0.009294182062149,0.0,0.0,0.0,0.0,0.0,0.0,0.0,0.0,0.0,-0.0942628756165504,0.0248021502047777,0.9938976764678956,0.0,0.0,0.0,0.0,0.0,0.0,0.0,0.0,0.0
227,1690899087.5703597,530232,1690899087,570154667,livox_frame,0.0,0.0,0.0,0.0,0.0,0.0,0.0,0.0,0.0,0.0,0.0,0.0,0.0,0.0070629753172397,-0.0052296565845608,-0.009294182062149,0.0,0.0,0.0,0.0,0.0,0.0,0.0,0.0,0.0,-0.1037843599915504,0.0277318377047777,0.9956066608428956,0.0,0.0,0.0,0.0,0.0,0.0,0.0,0.0,0.0
228,1690899087.574759,530233,1690899087,574534416,livox_frame,0.0,0.0,0.0,0.0,0.0,0.0,0.0,0.0,0.0,0.0,0.0,0.0,0.0,0.0038671791553497,-0.007360185496509,-0.0060983896255493,0.0,0.0,0.0,0.0,0.0,0.0,0.0,0.0,0.0,-0.1140382662415504,0.0279759783297777,0.9965832233428956,0.0,0.0,0.0,0.0,0.0,0.0,0.0,0.0,0.0
229,1690899087.580725,530234,1690899087,580233812,livox_frame,0.0,0.0,0.0,0.0,0.0,0.0,0.0,0.0,0.0,0.0,0.0,0.0,0.0,0.00067138671875,-0.0105559788644313,-0.0039678588509559,0.0,0.0,0.0,0.0,0.0,0.0,0.0,0.0,0.0,-0.126001164317131,0.0311498064547777,0.9882824420928956,0.0,0.0,0.0,0.0,0.0,0.0,0.0,0.0,0.0
230,1690899087.584868,530235,1690899087,584635973,livox_frame,0.0,0.0,0.0,0.0,0.0,0.0,0.0,0.0,0.0,0.0,0.0,0.0,0.0,0.0017366521060466,-0.0105559788644313,-0.0060983896255493,0.0,0.0,0.0,0.0,0.0,0.0,0.0,0.0,0.0,-0.1203859224915504,0.0345677770674228,0.9775402545928956,0.0,0.0,0.0,0.0,0.0,0.0,0.0,0.0,0.0
231,1690899087.5905638,530236,1690899087,590262413,livox_frame,0.0,0.0,0.0,0.0,0.0,0.0,0.0,0.0,0.0,0.0,0.0,0.0,0.0,0.0091935023665428,-0.0062949210405349,-0.0060983896255493,0.0,0.0,0.0,0.0,0.0,0.0,0.0,0.0,0.0,-0.1040285006165504,0.0269994158297777,0.9714367389678956,0.0,0.0,0.0,0.0,0.0,0.0,0.0,0.0,0.0
232,1690899087.594865,530237,1690899087,594587326,livox_frame,0.0,0.0,0.0,0.0,0.0,0.0,0.0,0.0,0.0,0.0,0.0,0.0,0.0,0.0123892948031425,-0.0041643921285867,-0.009294182062149,0.0,0.0,0.0,0.0,0.0,0.0,0.0,0.0,0.0,-0.0908449068665504,0.0248021502047777,0.9907238483428956,0.0,0.0,0.0,0.0,0.0,0.0,0.0,0.0,0.0
233,1690899087.6005616,530238,1690899087,600291491,livox_frame,0.0,0.0,0.0,0.0,0.0,0.0,0.0,0.0,0.0,0.0,0.0,0.0,0.0,0.0166503526270389,-0.0020338632166385,-0.0114247128367424,0.0,0.0,0.0,0.0,0.0,0.0,0.0,0.0,0.0,-0.0884035006165504,0.0250462908297777,0.9941418170928956,0.0,0.0,0.0,0.0,0.0,0.0,0.0,0.0,0.0
234,1690899087.6047032,530239,1690899087,604486465,livox_frame,0.0,0.0,0.0,0.0,0.0,0.0,0.0,0.0,0.0,0.0,0.0,0.0,0.0,0.0102587677538394,0.004357723519206,-0.0060983896255493,0.0,0.0,0.0,0.0,0.0,0.0,0.0,0.0,0.0,-0.0976808443665504,0.0260228533297777,0.9970715045928956,0.0,0.0,0.0,0.0,0.0,0.0,0.0,0.0,0.0
235,1690899087.6105752,530240,1690899087,610230446,livox_frame,0.0,0.0,0.0,0.0,0.0,0.0,0.0,0.0,0.0,0.0,0.0,0.0,0.0,0.0028019174933433,0.0054229889065027,-0.0071636512875556,0.0,0.0,0.0,0.0,0.0,0.0,0.0,0.0,0.0,-0.1155031099915504,0.0277318377047777,1.0029308795928955,0.0,0.0,0.0,0.0,0.0,0.0,0.0,0.0,0.0
236,1690899087.6148102,530241,1690899087,614478827,livox_frame,0.0,0.0,0.0,0.0,0.0,0.0,0.0,0.0,0.0,0.0,0.0,0.0,0.0,0.00067138671875,0.0011619310826063,-0.0082289204001426,0.0,0.0,0.0,0.0,0.0,0.0,0.0,0.0,0.0,-0.128442570567131,0.0360326208174228,0.9851086139678956,0.0,0.0,0.0,0.0,0.0,0.0,0.0,0.0,0.0
237,1690899087.6205542,530242,1690899087,620337009,livox_frame,0.0,0.0,0.0,0.0,0.0,0.0,0.0,0.0,0.0,0.0,0.0,0.0,0.0,-0.0003938786685466,-0.0041643921285867,-0.0050331279635429,0.0,0.0,0.0,0.0,0.0,0.0,0.0,0.0,0.0,-0.1220949068665504,0.0316380895674228,0.9689953327178956,0.0,0.0,0.0,0.0,0.0,0.0,0.0,0.0,0.0
238,1690899087.6249704,530243,1690899087,624763966,livox_frame,0.0,0.0,0.0,0.0,0.0,0.0,0.0,0.0,0.0,0.0,0.0,0.0,0.0,0.0091935023665428,-0.007360185496509,-0.0082289204001426,0.0,0.0,0.0,0.0,0.0,0.0,0.0,0.0,0.0,-0.1050050631165504,0.0248021502047777,0.9729015827178956,0.0,0.0,0.0,0.0,0.0,0.0,0.0,0.0,0.0
239,1690899087.6303709,530244,1690899087,630167246,livox_frame,0.0,0.0,0.0,0.0,0.0,0.0,0.0,0.0,0.0,0.0,0.0,0.0,0.0,0.0145198255777359,-0.0116212433204054,-0.009294182062149,0.0,0.0,0.0,0.0,0.0,0.0,0.0,0.0,0.0,-0.0962160006165504,0.0250462908297777,0.9851086139678956,0.0,0.0,0.0,0.0,0.0,0.0,0.0,0.0,0.0
240,1690899087.6347222,530245,1690899087,634529352,livox_frame,0.0,0.0,0.0,0.0,0.0,0.0,0.0,0.0,0.0,0.0,0.0,0.0,0.0,0.0102587677538394,-0.0126865077763795,-0.0114247128367424,0.0,0.0,0.0,0.0,0.0,0.0,0.0,0.0,0.0,-0.0908449068665504,0.0277318377047777,0.9995129108428956,0.0,0.0,0.0,0.0,0.0,0.0,0.0,0.0,0.0
241,1690899087.6407394,530246,1690899087,640214205,livox_frame,0.0,0.0,0.0,0.0,0.0,0.0,0.0,0.0,0.0,0.0,0.0,0.0,0.0,0.0091935023665428,-0.007360185496509,-0.0071636512875556,0.0,0.0,0.0,0.0,0.0,0.0,0.0,0.0,0.0,-0.0998781099915504,0.0221166033297777,0.9941418170928956,0.0,0.0,0.0,0.0,0.0,0.0,0.0,0.0,0.0
242,1690899087.6448908,530247,1690899087,644583702,livox_frame,0.0,0.0,0.0,0.0,0.0,0.0,0.0,0.0,0.0,0.0,0.0,0.0,0.0,0.0038671791553497,-0.0052296565845608,-0.0060983896255493,0.0,0.0,0.0,0.0,0.0,0.0,0.0,0.0,0.0,-0.1155031099915504,0.0321263708174228,1.0058605670928955,0.0,0.0,0.0,0.0,0.0,0.0,0.0,0.0,0.0
243,1690899087.6506095,530248,1690899087,650260210,livox_frame,0.0,0.0,0.0,0.0,0.0,0.0,0.0,0.0,0.0,0.0,0.0,0.0,0.0,0.0038671791553497,-0.0020338632166385,-0.0071636512875556,0.0,0.0,0.0,0.0,0.0,0.0,0.0,0.0,0.0,-0.1223390474915504,0.0340794958174228,0.9848644733428956,0.0,0.0,0.0,0.0,0.0,0.0,0.0,0.0,0.0
244,1690899087.6547625,530249,1690899087,654550552,livox_frame,0.0,0.0,0.0,0.0,0.0,0.0,0.0,0.0,0.0,0.0,0.0,0.0,0.0,0.0070629753172397,0.0054229889065027,-0.0060983896255493,0.0,0.0,0.0,0.0,0.0,0.0,0.0,0.0,0.0,-0.1145265474915504,0.0267552752047777,0.9660656452178956,0.0,0.0,0.0,0.0,0.0,0.0,0.0,0.0,0.0
245,1690899087.6605682,530250,1690899087,660222292,livox_frame,0.0,0.0,0.0,0.0,0.0,0.0,0.0,0.0,0.0,0.0,0.0,0.0,0.0,0.0113240331411361,0.0064882524311542,-0.0071636512875556,0.0,0.0,0.0,0.0,0.0,0.0,0.0,0.0,0.0,-0.1010988131165504,0.0262669939547777,0.9804699420928956,0.0,0.0,0.0,0.0,0.0,0.0,0.0,0.0,0.0
246,1690899087.664719,530251,1690899087,664517403,livox_frame,0.0,0.0,0.0,0.0,0.0,0.0,0.0,0.0,0.0,0.0,0.0,0.0,0.0,0.0145198255777359,9.666569530963898e-05,-0.009294182062149,0.0,0.0,0.0,0.0,0.0,0.0,0.0,0.0,0.0,-0.0964601412415504,0.0277318377047777,0.9926769733428956,0.0,0.0,0.0,0.0,0.0,0.0,0.0,0.0,0.0
247,1690899087.6705174,530252,1690899087,670333862,livox_frame,0.0,0.0,0.0,0.0,0.0,0.0,0.0,0.0,0.0,0.0,0.0,0.0,0.0,0.0134545601904392,-0.0041643921285867,-0.009294182062149,0.0,0.0,0.0,0.0,0.0,0.0,0.0,0.0,0.0,-0.0991456881165504,0.0226048845797777,0.9904797077178956,0.0,0.0,0.0,0.0,0.0,0.0,0.0,0.0,0.0
248,1690899087.6748292,530253,1690899087,674550056,livox_frame,0.0,0.0,0.0,0.0,0.0,0.0,0.0,0.0,0.0,0.0,0.0,0.0,0.0,0.0081282369792461,-0.007360185496509,-0.0071636512875556,0.0,0.0,0.0,0.0,0.0,0.0,0.0,0.0,0.0,-0.1084230318665504,0.0248021502047777,0.9985363483428956,0.0,0.0,0.0,0.0,0.0,0.0,0.0,0.0,0.0
249,1690899087.6804037,530254,1690899087,680165052,livox_frame,0.0,0.0,0.0,0.0,0.0,0.0,0.0,0.0,0.0,0.0,0.0,0.0,0.0,0.0017366521060466,-0.0116212433204054,-0.0071636512875556,0.0,0.0,0.0,0.0,0.0,0.0,0.0,0.0,0.0,-0.125512883067131,0.0343236364424228,0.9951183795928956,0.0,0.0,0.0,0.0,0.0,0.0,0.0,0.0,0.0
250,1690899087.6848114,530255,1690899087,684563875,livox_frame,0.0,0.0,0.0,0.0,0.0,0.0,0.0,0.0,0.0,0.0,0.0,0.0,0.0,0.0028019174933433,-0.0126865077763795,-0.0082289204001426,0.0,0.0,0.0,0.0,0.0,0.0,0.0,0.0,0.0,-0.125757023692131,0.0340794958174228,0.9802258014678956,0.0,0.0,0.0,0.0,0.0,0.0,0.0,0.0,0.0
251,1690899087.690559,530256,1690899087,690333366,livox_frame,0.0,0.0,0.0,0.0,0.0,0.0,0.0,0.0,0.0,0.0,0.0,0.0,0.0,0.0049324445426464,-0.0094907144084572,-0.0050331279635429,0.0,0.0,0.0,0.0,0.0,0.0,0.0,0.0,0.0,-0.1106202974915504,0.0277318377047777,0.9704601764678956,0.0,0.0,0.0,0.0,0.0,0.0,0.0,0.0,0.0
252,1690899087.6949704,530257,1690899087,694699287,livox_frame,0.0,0.0,0.0,0.0,0.0,0.0,0.0,0.0,0.0,0.0,0.0,0.0,0.0,0.0145198255777359,-0.0062949210405349,-0.0071636512875556,0.0,0.0,0.0,0.0,0.0,0.0,0.0,0.0,0.0,-0.0976808443665504,0.0301732439547777,0.9855968952178956,0.0,0.0,0.0,0.0,0.0,0.0,0.0,0.0,0.0
253,1690899087.7006984,530258,1690899087,700264692,livox_frame,0.0,0.0,0.0,0.0,0.0,0.0,0.0,0.0,0.0,0.0,0.0,0.0,0.0,0.0177156180143356,-0.0030991276726126,-0.0103594437241554,0.0,0.0,0.0,0.0,0.0,0.0,0.0,0.0,0.0,-0.0903566256165504,0.0291966814547777,0.9917004108428956,0.0,0.0,0.0,0.0,0.0,0.0,0.0,0.0,0.0
254,1690899087.704815,530259,1690899087,704567909,livox_frame,0.0,0.0,0.0,0.0,0.0,0.0,0.0,0.0,0.0,0.0,0.0,0.0,0.0,0.0134545601904392,0.0011619310826063,-0.009294182062149,0.0,0.0,0.0,0.0,0.0,0.0,0.0,0.0,0.0,-0.0918214693665504,0.0223607439547777,0.9938976764678956,0.0,0.0,0.0,0.0,0.0,0.0,0.0,0.0,0.0
255,1690899087.7105973,530260,1690899087,710336447,livox_frame,0.0,0.0,0.0,0.0,0.0,0.0,0.0,0.0,0.0,0.0,0.0,0.0,0.0,0.0070629753172397,0.004357723519206,-0.0082289204001426,0.0,0.0,0.0,0.0,0.0,0.0,0.0,0.0,0.0,-0.1101320162415504,0.0311498064547777,1.0048840045928955,0.0,0.0,0.0,0.0,0.0,0.0,0.0,0.0,0.0
256,1690899087.7148018,530261,1690899087,714577436,livox_frame,0.0,0.0,0.0,0.0,0.0,0.0,0.0,0.0,0.0,0.0,0.0,0.0,0.0,0.0028019174933433,0.0011619310826063,-0.0071636512875556,0.0,0.0,0.0,0.0,0.0,0.0,0.0,0.0,0.0,-0.125512883067131,0.0374974645674228,0.9956066608428956,0.0,0.0,0.0,0.0,0.0,0.0,0.0,0.0,0.0
257,1690899087.72053,530262,1690899087,720333338,livox_frame,0.0,0.0,0.0,0.0,0.0,0.0,0.0,0.0,0.0,0.0,0.0,0.0,0.0,0.0017366521060466,-0.0052296565845608,-0.0060983896255493,0.0,0.0,0.0,0.0,0.0,0.0,0.0,0.0,0.0,-0.1242921724915504,0.0304173845797777,0.9709484577178956,0.0,0.0,0.0,0.0,0.0,0.0,0.0,0.0,0.0
258,1690899087.7248898,530263,1690899087,724591255,livox_frame,0.0,0.0,0.0,0.0,0.0,0.0,0.0,0.0,0.0,0.0,0.0,0.0,0.0,0.005997709929943,-0.0041643921285867,-0.0071636512875556,0.0,0.0,0.0,0.0,0.0,0.0,0.0,0.0,0.0,-0.1120851412415504,0.0287084002047777,0.9702160358428956,0.0,0.0,0.0,0.0,0.0,0.0,0.0,0.0,0.0
259,1690899087.7305334,530264,1690899087,730333328,livox_frame,0.0,0.0,0.0,0.0,0.0,0.0,0.0,0.0,0.0,0.0,0.0,0.0,0.0,0.0123892948031425,-0.0105559788644313,-0.0082289204001426,0.0,0.0,0.0,0.0,0.0,0.0,0.0,0.0,0.0,-0.1010988131165504,0.0296849627047777,0.9836437702178956,0.0,0.0,0.0,0.0,0.0,0.0,0.0,0.0,0.0
260,1690899087.7347834,530265,1690899087,734571457,livox_frame,0.0,0.0,0.0,0.0,0.0,0.0,0.0,0.0,0.0,0.0,0.0,0.0,0.0,0.0123892948031425,-0.0137517722323536,-0.009294182062149,0.0,0.0,0.0,0.0,0.0,0.0,0.0,0.0,0.0,-0.0874269381165504,0.0250462908297777,0.9917004108428956,0.0,0.0,0.0,0.0,0.0,0.0,0.0,0.0,0.0
261,1690899087.740575,530266,1690899087,740261316,livox_frame,0.0,0.0,0.0,0.0,0.0,0.0,0.0,0.0,0.0,0.0,0.0,0.0,0.0,0.0070629753172397,-0.0084254499524831,-0.0082289204001426,0.0,0.0,0.0,0.0,0.0,0.0,0.0,0.0,0.0,-0.0957277193665504,0.0228490252047777,0.9934093952178956,0.0,0.0,0.0,0.0,0.0,0.0,0.0,0.0,0.0
262,1690899087.744772,530267,1690899087,744500875,livox_frame,0.0,0.0,0.0,0.0,0.0,0.0,0.0,0.0,0.0,0.0,0.0,0.0,0.0,0.0028019174933433,-0.0062949210405349,-0.0071636512875556,0.0,0.0,0.0,0.0,0.0,0.0,0.0,0.0,0.0,-0.1081788912415504,0.0340794958174228,1.0102550983428955,0.0,0.0,0.0,0.0,0.0,0.0,0.0,0.0,0.0
263,1690899087.7505856,530268,1690899087,750332832,livox_frame,0.0,0.0,0.0,0.0,0.0,0.0,0.0,0.0,0.0,0.0,0.0,0.0,0.0,0.0028019174933433,-0.0009685987606644,-0.0060983896255493,0.0,0.0,0.0,0.0,0.0,0.0,0.0,0.0,0.0,-0.1218507662415504,0.0316380895674228,0.9860851764678956,0.0,0.0,0.0,0.0,0.0,0.0,0.0,0.0,0.0
264,1690899087.7548652,530269,1690899087,754632235,livox_frame,0.0,0.0,0.0,0.0,0.0,0.0,0.0,0.0,0.0,0.0,0.0,0.0,0.0,0.0028019174933433,0.0054229889065027,-0.0082289204001426,0.0,0.0,0.0,0.0,0.0,0.0,0.0,0.0,0.0,-0.1172120943665504,0.0284642595797777,0.9719250202178956,0.0,0.0,0.0,0.0,0.0,0.0,0.0,0.0,0.0
265,1690899087.7606795,530270,1690899087,760247469,livox_frame,0.0,0.0,0.0,0.0,0.0,0.0,0.0,0.0,0.0,0.0,0.0,0.0,0.0,0.0091935023665428,0.0064882524311542,-0.0050331279635429,0.0,0.0,0.0,0.0,0.0,0.0,0.0,0.0,0.0,-0.1074464693665504,0.0301732439547777,0.9743664264678956,0.0,0.0,0.0,0.0,0.0,0.0,0.0,0.0,0.0
266,1690899087.764686,530271,1690899087,764485598,livox_frame,0.0,0.0,0.0,0.0,0.0,0.0,0.0,0.0,0.0,0.0,0.0,0.0,0.0,0.0145198255777359,9.666569530963898e-05,-0.0071636512875556,0.0,0.0,0.0,0.0,0.0,0.0,0.0,0.0,0.0,-0.0945070162415504,0.0267552752047777,0.9863293170928956,0.0,0.0,0.0,0.0,0.0,0.0,0.0,0.0,0.0
267,1690899087.7705708,530272,1690899087,770293713,livox_frame,0.0,0.0,0.0,0.0,0.0,0.0,0.0,0.0,0.0,0.0,0.0,0.0,0.0,0.0134545601904392,-0.0041643921285867,-0.0114247128367424,0.0,0.0,0.0,0.0,0.0,0.0,0.0,0.0,0.0,-0.0913331881165504,0.0191869158297777,0.9902355670928956,0.0,0.0,0.0,0.0,0.0,0.0,0.0,0.0,0.0
268,1690899087.7747712,530273,1690899087,774515152,livox_frame,0.0,0.0,0.0,0.0,0.0,0.0,0.0,0.0,0.0,0.0,0.0,0.0,0.0,0.0081282369792461,-0.0052296565845608,-0.0082289204001426,0.0,0.0,0.0,0.0,0.0,0.0,0.0,0.0,0.0,-0.1037843599915504,0.0255345720797777,0.9965832233428956,0.0,0.0,0.0,0.0,0.0,0.0,0.0,0.0,0.0
269,1690899087.780561,530274,1690899087,780335426,livox_frame,0.0,0.0,0.0,0.0,0.0,0.0,0.0,0.0,0.0,0.0,0.0,0.0,0.0,0.0028019174933433,-0.0094907144084572,-0.0039678588509559,0.0,0.0,0.0,0.0,0.0,0.0,0.0,0.0,0.0,-0.1177003756165504,0.0326146520674228,1.0078136920928955,0.0,0.0,0.0,0.0,0.0,0.0,0.0,0.0,0.0
270,1690899087.7847688,530275,1690899087,784526110,livox_frame,0.0,0.0,0.0,0.0,0.0,0.0,0.0,0.0,0.0,0.0,0.0,0.0,0.0,0.00067138671875,-0.0116212433204054,-0.0060983896255493,0.0,0.0,0.0,0.0,0.0,0.0,0.0,0.0,0.0,-0.1247804537415504,0.0287084002047777,0.9799816608428956,0.0,0.0,0.0,0.0,0.0,0.0,0.0,0.0,0.0
271,1690899087.7905722,530276,1690899087,790334702,livox_frame,0.0,0.0,0.0,0.0,0.0,0.0,0.0,0.0,0.0,0.0,0.0,0.0,0.0,0.0017366521060466,-0.0094907144084572,-0.0060983896255493,0.0,0.0,0.0,0.0,0.0,0.0,0.0,0.0,0.0,-0.1194093599915504,0.0304173845797777,0.9721691608428956,0.0,0.0,0.0,0.0,0.0,0.0,0.0,0.0,0.0
272,1690899087.7949748,530277,1690899087,794761658,livox_frame,0.0,0.0,0.0,0.0,0.0,0.0,0.0,0.0,0.0,0.0,0.0,0.0,0.0,0.0091935023665428,-0.0052296565845608,-0.0082289204001426,0.0,0.0,0.0,0.0,0.0,0.0,0.0,0.0,0.0,-0.1028077974915504,0.0316380895674228,0.9836437702178956,0.0,0.0,0.0,0.0,0.0,0.0,0.0,0.0,0.0
273,1690899087.8006046,530278,1690899087,800384283,livox_frame,0.0,0.0,0.0,0.0,0.0,0.0,0.0,0.0,0.0,0.0,0.0,0.0,0.0,0.0177156180143356,-0.0020338632166385,-0.0114247128367424,0.0,0.0,0.0,0.0,0.0,0.0,0.0,0.0,0.0,-0.0927980318665504,0.0235814470797777,0.9851086139678956,0.0,0.0,0.0,0.0,0.0,0.0,0.0,0.0,0.0
274,1690899087.8050008,530279,1690899087,804653406,livox_frame,0.0,0.0,0.0,0.0,0.0,0.0,0.0,0.0,0.0,0.0,0.0,0.0,0.0,0.0134545601904392,0.0022271946072578,-0.0071636512875556,0.0,0.0,0.0,0.0,0.0,0.0,0.0,0.0,0.0,-0.0886476412415504,0.0223607439547777,0.9899914264678956,0.0,0.0,0.0,0.0,0.0,0.0,0.0,0.0,0.0
275,1690899087.8106608,530280,1690899087,810265303,livox_frame,0.0,0.0,0.0,0.0,0.0,0.0,0.0,0.0,0.0,0.0,0.0,0.0,0.0,0.0081282369792461,0.004357723519206,-0.0060983896255493,0.0,0.0,0.0,0.0,0.0,0.0,0.0,0.0,0.0,-0.1047609224915504,0.0301732439547777,1.0051281452178955,0.0,0.0,0.0,0.0,0.0,0.0,0.0,0.0,0.0
276,1690899087.8147678,530281,1690899087,814576387,livox_frame,0.0,0.0,0.0,0.0,0.0,0.0,0.0,0.0,0.0,0.0,0.0,0.0,0.0,0.0028019174933433,0.0011619310826063,-0.0060983896255493,0.0,0.0,0.0,0.0,0.0,0.0,0.0,0.0,0.0,-0.1213624849915504,0.0296849627047777,1.0000011920928955,0.0,0.0,0.0,0.0,0.0,0.0,0.0,0.0,0.0
277,1690899087.820531,530282,1690899087,820352793,livox_frame,0.0,0.0,0.0,0.0,0.0,0.0,0.0,0.0,0.0,0.0,0.0,0.0,0.0,0.00067138671875,-0.0030991276726126,-0.0082289204001426,0.0,0.0,0.0,0.0,0.0,0.0,0.0,0.0,0.0,-0.125512883067131,0.0316380895674228,0.9785168170928956,0.0,0.0,0.0,0.0,0.0,0.0,0.0,0.0,0.0
278,1690899087.8248324,530283,1690899087,824641943,livox_frame,0.0,0.0,0.0,0.0,0.0,0.0,0.0,0.0,0.0,0.0,0.0,0.0,0.0,0.0038671791553497,-0.0062949210405349,-0.0029025971889495,0.0,0.0,0.0,0.0,0.0,0.0,0.0,0.0,0.0,-0.1230714693665504,0.0323705114424228,0.9697277545928956,0.0,0.0,0.0,0.0,0.0,0.0,0.0,0.0,0.0
279,1690899087.8303685,530284,1690899087,830205679,livox_frame,0.0,0.0,0.0,0.0,0.0,0.0,0.0,0.0,0.0,0.0,0.0,0.0,0.0,0.0113240331411361,-0.0094907144084572,-0.0050331279635429,0.0,0.0,0.0,0.0,0.0,0.0,0.0,0.0,0.0,-0.1064699068665504,0.0304173845797777,0.9812023639678956,0.0,0.0,0.0,0.0,0.0,0.0,0.0,0.0,0.0
280,1690899087.8348582,530285,1690899087,834623337,livox_frame,0.0,0.0,0.0,0.0,0.0,0.0,0.0,0.0,0.0,0.0,0.0,0.0,0.0,0.0113240331411361,-0.0126865077763795,-0.0114247128367424,0.0,0.0,0.0,0.0,0.0,0.0,0.0,0.0,0.0,-0.0913331881165504,0.0233373064547777,0.9858410358428956,0.0,0.0,0.0,0.0,0.0,0.0,0.0,0.0,0.0
281,1690899087.8405526,530286,1690899087,840239525,livox_frame,0.0,0.0,0.0,0.0,0.0,0.0,0.0,0.0,0.0,0.0,0.0,0.0,0.0,0.0070629753172397,-0.0105559788644313,-0.0071636512875556,0.0,0.0,0.0,0.0,0.0,0.0,0.0,0.0,0.0,-0.0937745943665504,0.0265111345797777,0.9956066608428956,0.0,0.0,0.0,0.0,0.0,0.0,0.0,0.0,0.0
282,1690899087.8447113,530287,1690899087,844497681,livox_frame,0.0,0.0,0.0,0.0,0.0,0.0,0.0,0.0,0.0,0.0,0.0,0.0,0.0,0.0091935023665428,-0.0030991276726126,-0.0050331279635429,0.0,0.0,0.0,0.0,0.0,0.0,0.0,0.0,0.0,-0.1023195162415504,0.0309056658297777,1.0039074420928955,0.0,0.0,0.0,0.0,0.0,0.0,0.0,0.0,0.0
283,1690899087.8506205,530288,1690899087,850303650,livox_frame,0.0,0.0,0.0,0.0,0.0,0.0,0.0,0.0,0.0,0.0,0.0,0.0,0.0,0.0038671791553497,-0.0020338632166385,-0.0050331279635429,0.0,0.0,0.0,0.0,0.0,0.0,0.0,0.0,0.0,-0.1174562349915504,0.0301732439547777,1.0000011920928955,0.0,0.0,0.0,0.0,0.0,0.0,0.0,0.0,0.0
284,1690899087.8547893,530289,1690899087,854545832,livox_frame,0.0,0.0,0.0,0.0,0.0,0.0,0.0,0.0,0.0,0.0,0.0,0.0,0.0,0.0017366521060466,0.004357723519206,-0.0071636512875556,0.0,0.0,0.0,0.0,0.0,0.0,0.0,0.0,0.0,-0.1203859224915504,0.0331029333174228,0.9736340045928956,0.0,0.0,0.0,0.0,0.0,0.0,0.0,0.0,0.0
285,1690899087.8605297,530290,1690899087,860352278,livox_frame,0.0,0.0,0.0,0.0,0.0,0.0,0.0,0.0,0.0,0.0,0.0,0.0,0.0,0.0070629753172397,0.0064882524311542,-0.0071636512875556,0.0,0.0,0.0,0.0,0.0,0.0,0.0,0.0,0.0,-0.1155031099915504,0.0333470739424228,0.9748547077178956,0.0,0.0,0.0,0.0,0.0,0.0,0.0,0.0,0.0
286,1690899087.8648348,530291,1690899087,864621878,livox_frame,0.0,0.0,0.0,0.0,0.0,0.0,0.0,0.0,0.0,0.0,0.0,0.0,0.0,0.0091935023665428,0.0011619310826063,-0.0082289204001426,0.0,0.0,0.0,0.0,0.0,0.0,0.0,0.0,0.0,-0.0996339693665504,0.0267552752047777,0.9826672077178956,0.0,0.0,0.0,0.0,0.0,0.0,0.0,0.0,0.0
287,1690899087.870427,530292,1690899087,870226145,livox_frame,0.0,0.0,0.0,0.0,0.0,0.0,0.0,0.0,0.0,0.0,0.0,0.0,0.0,0.0134545601904392,-0.0041643921285867,-0.0114247128367424,0.0,0.0,0.0,0.0,0.0,0.0,0.0,0.0,0.0,-0.0910890474915504,0.0250462908297777,0.9880383014678956,0.0,0.0,0.0,0.0,0.0,0.0,0.0,0.0,0.0
288,1690899087.8748243,530293,1690899087,874589443,livox_frame,0.0,0.0,0.0,0.0,0.0,0.0,0.0,0.0,0.0,0.0,0.0,0.0,0.0,0.0113240331411361,-0.0062949210405349,-0.0050331279635429,0.0,0.0,0.0,0.0,0.0,0.0,0.0,0.0,0.0,-0.0989015474915504,0.0269994158297777,0.9943859577178956,0.0,0.0,0.0,0.0,0.0,0.0,0.0,0.0,0.0
289,1690899087.880674,530294,1690899087,880276203,livox_frame,0.0,0.0,0.0,0.0,0.0,0.0,0.0,0.0,0.0,0.0,0.0,0.0,0.0,0.005997709929943,-0.0094907144084572,-0.0039678588509559,0.0,0.0,0.0,0.0,0.0,0.0,0.0,0.0,0.0,-0.1076906099915504,0.0282201189547777,1.0063488483428955,0.0,0.0,0.0,0.0,0.0,0.0,0.0,0.0,0.0
290,1690899087.8847706,530295,1690899087,884574175,livox_frame,0.0,0.0,0.0,0.0,0.0,0.0,0.0,0.0,0.0,0.0,0.0,0.0,0.0,0.00067138671875,-0.0137517722323536,-0.0082289204001426,0.0,0.0,0.0,0.0,0.0,0.0,0.0,0.0,0.0,-0.1240480318665504,0.0311498064547777,0.9899914264678956,0.0,0.0,0.0,0.0,0.0,0.0,0.0,0.0,0.0
291,1690899087.8903704,530296,1690899087,890175343,livox_frame,0.0,0.0,0.0,0.0,0.0,0.0,0.0,0.0,0.0,0.0,0.0,0.0,0.0,0.00067138671875,-0.0094907144084572,-0.0060983896255493,0.0,0.0,0.0,0.0,0.0,0.0,0.0,0.0,0.0,-0.1213624849915504,0.0331029333174228,0.9782726764678956,0.0,0.0,0.0,0.0,0.0,0.0,0.0,0.0,0.0
292,1690899087.8947656,530297,1690899087,894569159,livox_frame,0.0,0.0,0.0,0.0,0.0,0.0,0.0,0.0,0.0,0.0,0.0,0.0,0.0,0.0049324445426464,-0.0041643921285867,-0.0050331279635429,0.0,0.0,0.0,0.0,0.0,0.0,0.0,0.0,0.0,-0.1059816256165504,0.0287084002047777,0.9772961139678956,0.0,0.0,0.0,0.0,0.0,0.0,0.0,0.0,0.0
293,1690899087.9005952,530298,1690899087,900251627,livox_frame,0.0,0.0,0.0,0.0,0.0,0.0,0.0,0.0,0.0,0.0,0.0,0.0,0.0,0.0123892948031425,9.666569530963898e-05,-0.009294182062149,0.0,0.0,0.0,0.0,0.0,0.0,0.0,0.0,0.0,-0.0952394381165504,0.0243138689547777,0.9812023639678956,0.0,0.0,0.0,0.0,0.0,0.0,0.0,0.0,0.0
294,1690899087.9047318,530299,1690899087,904549599,livox_frame,0.0,0.0,0.0,0.0,0.0,0.0,0.0,0.0,0.0,0.0,0.0,0.0,0.0,0.0134545601904392,0.0032924599945545,-0.009294182062149,0.0,0.0,0.0,0.0,0.0,0.0,0.0,0.0,0.0,-0.0886476412415504,0.0257787127047777,0.9885265827178956,0.0,0.0,0.0,0.0,0.0,0.0,0.0,0.0,0.0
295,1690899087.9105313,530300,1690899087,910354376,livox_frame,0.0,0.0,0.0,0.0,0.0,0.0,0.0,0.0,0.0,0.0,0.0,0.0,0.0,0.0123892948031425,0.004357723519206,-0.0082289204001426,0.0,0.0,0.0,0.0,0.0,0.0,0.0,0.0,0.0,-0.0937745943665504,0.0248021502047777,0.9975597858428956,0.0,0.0,0.0,0.0,0.0,0.0,0.0,0.0,0.0
296,1690899087.9148378,530301,1690899087,914665699,livox_frame,0.0,0.0,0.0,0.0,0.0,0.0,0.0,0.0,0.0,0.0,0.0,0.0,0.0,0.0017366521060466,0.0022271946072578,-0.0071636512875556,0.0,0.0,0.0,0.0,0.0,0.0,0.0,0.0,0.0,-0.1123292818665504,0.0255345720797777,1.0063488483428955,0.0,0.0,0.0,0.0,0.0,0.0,0.0,0.0,0.0
297,1690899087.9205716,530302,1690899087,920354605,livox_frame,0.0,0.0,0.0,0.0,0.0,0.0,0.0,0.0,0.0,0.0,0.0,0.0,0.0,-0.0003938786685466,-0.0009685987606644,-0.0082289204001426,0.0,0.0,0.0,0.0,0.0,0.0,0.0,0.0,0.0,-0.125512883067131,0.0331029333174228,0.9882824420928956,0.0,0.0,0.0,0.0,0.0,0.0,0.0,0.0,0.0
298,1690899087.9249165,530303,1690899087,924713612,livox_frame,0.0,0.0,0.0,0.0,0.0,0.0,0.0,0.0,0.0,0.0,0.0,0.0,0.0,0.00067138671875,-0.0052296565845608,-0.0029025971889495,0.0,0.0,0.0,0.0,0.0,0.0,0.0,0.0,0.0,-0.126489445567131,0.0311498064547777,0.9702160358428956,0.0,0.0,0.0,0.0,0.0,0.0,0.0,0.0,0.0
299,1690899087.930373,530304,1690899087,930164337,livox_frame,0.0,0.0,0.0,0.0,0.0,0.0,0.0,0.0,0.0,0.0,0.0,0.0,0.0,0.0049324445426464,-0.0084254499524831,-0.0060983896255493,0.0,0.0,0.0,0.0,0.0,0.0,0.0,0.0,0.0,-0.1115968599915504,0.0250462908297777,0.9775402545928956,0.0,0.0,0.0,0.0,0.0,0.0,0.0,0.0,0.0
300,1690899087.9349334,530305,1690899087,934624434,livox_frame,0.0,0.0,0.0,0.0,0.0,0.0,0.0,0.0,0.0,0.0,0.0,0.0,0.0,0.0102587677538394,-0.0126865077763795,-0.009294182062149,0.0,0.0,0.0,0.0,0.0,0.0,0.0,0.0,0.0,-0.0991456881165504,0.0269994158297777,0.9802258014678956,0.0,0.0,0.0,0.0,0.0,0.0,0.0,0.0,0.0
301,1690899087.9405897,530306,1690899087,940306664,livox_frame,0.0,0.0,0.0,0.0,0.0,0.0,0.0,0.0,0.0,0.0,0.0,0.0,0.0,0.0102587677538394,-0.0116212433204054,-0.0082289204001426,0.0,0.0,0.0,0.0,0.0,0.0,0.0,0.0,0.0,-0.0908449068665504,0.0274876970797777,0.9956066608428956,0.0,0.0,0.0,0.0,0.0,0.0,0.0,0.0,0.0
302,1690899087.944769,530307,1690899087,944527864,livox_frame,0.0,0.0,0.0,0.0,0.0,0.0,0.0,0.0,0.0,0.0,0.0,0.0,0.0,0.0113240331411361,-0.0041643921285867,-0.0071636512875556,0.0,0.0,0.0,0.0,0.0,0.0,0.0,0.0,0.0,-0.0971925631165504,0.0204076189547777,0.9987804889678956,0.0,0.0,0.0,0.0,0.0,0.0,0.0,0.0,0.0
303,1690899087.9504044,530308,1690899087,950206041,livox_frame,0.0,0.0,0.0,0.0,0.0,0.0,0.0,0.0,0.0,0.0,0.0,0.0,0.0,0.0038671791553497,-0.0020338632166385,-0.0060983896255493,0.0,0.0,0.0,0.0,0.0,0.0,0.0,0.0,0.0,-0.1135499849915504,0.0321263708174228,1.0061047077178955,0.0,0.0,0.0,0.0,0.0,0.0,0.0,0.0,0.0
304,1690899087.954823,530309,1690899087,954625607,livox_frame,0.0,0.0,0.0,0.0,0.0,0.0,0.0,0.0,0.0,0.0,0.0,0.0,0.0,0.0017366521060466,0.0022271946072578,-0.0060983896255493,0.0,0.0,0.0,0.0,0.0,0.0,0.0,0.0,0.0,-0.1225831881165504,0.0343236364424228,0.9865734577178956,0.0,0.0,0.0,0.0,0.0,0.0,0.0,0.0,0.0
305,1690899087.9605677,530310,1690899087,960298777,livox_frame,0.0,0.0,0.0,0.0,0.0,0.0,0.0,0.0,0.0,0.0,0.0,0.0,0.0,0.0038671791553497,0.0075535178184509,-0.0060983896255493,0.0,0.0,0.0,0.0,0.0,0.0,0.0,0.0,0.0,-0.1213624849915504,0.0284642595797777,0.9677746295928956,0.0,0.0,0.0,0.0,0.0,0.0,0.0,0.0,0.0
306,1690899087.9648166,530311,1690899087,964587688,livox_frame,0.0,0.0,0.0,0.0,0.0,0.0,0.0,0.0,0.0,0.0,0.0,0.0,0.0,0.0081282369792461,0.0032924599945545,-0.0071636512875556,0.0,0.0,0.0,0.0,0.0,0.0,0.0,0.0,0.0,-0.1057374849915504,0.0291966814547777,0.9790050983428956,0.0,0.0,0.0,0.0,0.0,0.0,0.0,0.0,0.0
307,1690899087.9705603,530312,1690899087,970269918,livox_frame,0.0,0.0,0.0,0.0,0.0,0.0,0.0,0.0,0.0,0.0,0.0,0.0,0.0,0.0134545601904392,-0.0041643921285867,-0.0103594437241554,0.0,0.0,0.0,0.0,0.0,0.0,0.0,0.0,0.0,-0.0957277193665504,0.0294408220797777,0.9853527545928956,0.0,0.0,0.0,0.0,0.0,0.0,0.0,0.0,0.0
308,1690899087.9747107,530313,1690899087,974491596,livox_frame,0.0,0.0,0.0,0.0,0.0,0.0,0.0,0.0,0.0,0.0,0.0,0.0,0.0,0.0113240331411361,-0.0062949210405349,-0.0071636512875556,0.0,0.0,0.0,0.0,0.0,0.0,0.0,0.0,0.0,-0.0952394381165504,0.0238255877047777,0.9877941608428956,0.0,0.0,0.0,0.0,0.0,0.0,0.0,0.0,0.0
309,1690899087.9805715,530314,1690899087,980353832,livox_frame,0.0,0.0,0.0,0.0,0.0,0.0,0.0,0.0,0.0,0.0,0.0,0.0,0.0,0.0091935023665428,-0.0105559788644313,-0.0082289204001426,0.0,0.0,0.0,0.0,0.0,0.0,0.0,0.0,0.0,-0.1037843599915504,0.0265111345797777,1.0058605670928955,0.0,0.0,0.0,0.0,0.0,0.0,0.0,0.0,0.0
310,1690899087.984887,530315,1690899087,984678984,livox_frame,0.0,0.0,0.0,0.0,0.0,0.0,0.0,0.0,0.0,0.0,0.0,0.0,0.0,0.0017366521060466,-0.0148170366883277,-0.0071636512875556,0.0,0.0,0.0,0.0,0.0,0.0,0.0,0.0,0.0,-0.1208742037415504,0.0343236364424228,0.9980480670928956,0.0,0.0,0.0,0.0,0.0,0.0,0.0,0.0,0.0
311,1690899087.990635,530316,1690899087,990242720,livox_frame,0.0,0.0,0.0,0.0,0.0,0.0,0.0,0.0,0.0,0.0,0.0,0.0,0.0,0.00067138671875,-0.0116212433204054,-0.0060983896255493,0.0,0.0,0.0,0.0,0.0,0.0,0.0,0.0,0.0,-0.1228273287415504,0.0335912145674228,0.9831554889678956,0.0,0.0,0.0,0.0,0.0,0.0,0.0,0.0,0.0
312,1690899087.994791,530317,1690899087,994482279,livox_frame,0.0,0.0,0.0,0.0,0.0,0.0,0.0,0.0,0.0,0.0,0.0,0.0,0.0,0.0049324445426464,-0.0062949210405349,-0.0050331279635429,0.0,0.0,0.0,0.0,0.0,0.0,0.0,0.0,0.0,-0.1142824068665504,0.0291966814547777,0.9768078327178956,0.0,0.0,0.0,0.0,0.0,0.0,0.0,0.0,0.0
313,1690899088.0007086,530318,1690899088,263929,livox_frame,0.0,0.0,0.0,0.0,0.0,0.0,0.0,0.0,0.0,0.0,0.0,0.0,0.0,0.0123892948031425,-0.0009685987606644,-0.0082289204001426,0.0,0.0,0.0,0.0,0.0,0.0,0.0,0.0,0.0,-0.1015870943665504,0.0306615252047777,0.9802258014678956,0.0,0.0,0.0,0.0,0.0,0.0,0.0,0.0,0.0
314,1690899088.004759,530319,1690899088,4548550,livox_frame,0.0,0.0,0.0,0.0,0.0,0.0,0.0,0.0,0.0,0.0,0.0,0.0,0.0,0.0155850909650325,0.0022271946072578,-0.0103594437241554,0.0,0.0,0.0,0.0,0.0,0.0,0.0,0.0,0.0,-0.0913331881165504,0.0287084002047777,0.9853527545928956,0.0,0.0,0.0,0.0,0.0,0.0,0.0,0.0,0.0
315,1690899088.0105488,530320,1690899088,10354280,livox_frame,0.0,0.0,0.0,0.0,0.0,0.0,0.0,0.0,0.0,0.0,0.0,0.0,0.0,0.0134545601904392,0.004357723519206,-0.0071636512875556,0.0,0.0,0.0,0.0,0.0,0.0,0.0,0.0,0.0,-0.0888917818665504,0.0208959002047777,0.9909679889678956,0.0,0.0,0.0,0.0,0.0,0.0,0.0,0.0,0.0
316,1690899088.014876,530321,1690899088,14688253,livox_frame,0.0,0.0,0.0,0.0,0.0,0.0,0.0,0.0,0.0,0.0,0.0,0.0,0.0,0.005997709929943,0.0032924599945545,-0.0060983896255493,0.0,0.0,0.0,0.0,0.0,0.0,0.0,0.0,0.0,-0.1047609224915504,0.0291966814547777,1.0073254108428955,0.0,0.0,0.0,0.0,0.0,0.0,0.0,0.0,0.0
317,1690899088.0205598,530322,1690899088,20354748,livox_frame,0.0,0.0,0.0,0.0,0.0,0.0,0.0,0.0,0.0,0.0,0.0,0.0,0.0,0.0038671791553497,-0.0030991276726126,-0.0082289204001426,0.0,0.0,0.0,0.0,0.0,0.0,0.0,0.0,0.0,-0.1208742037415504,0.0331029333174228,0.9956066608428956,0.0,0.0,0.0,0.0,0.0,0.0,0.0,0.0,0.0
318,1690899088.0249846,530323,1690899088,24748564,livox_frame,0.0,0.0,0.0,0.0,0.0,0.0,0.0,0.0,0.0,0.0,0.0,0.0,0.0,-0.0025244057178497,-0.0041643921285867,-0.0039678588509559,0.0,0.0,0.0,0.0,0.0,0.0,0.0,0.0,0.0,-0.1242921724915504,0.0296849627047777,0.9738781452178956,0.0,0.0,0.0,0.0,0.0,0.0,0.0,0.0,0.0
319,1690899088.0305505,530324,1690899088,30251026,livox_frame,0.0,0.0,0.0,0.0,0.0,0.0,0.0,0.0,0.0,0.0,0.0,0.0,0.0,0.0049324445426464,-0.007360185496509,-0.0060983896255493,0.0,0.0,0.0,0.0,0.0,0.0,0.0,0.0,0.0,-0.1191652193665504,0.0296849627047777,0.9763195514678956,0.0,0.0,0.0,0.0,0.0,0.0,0.0,0.0,0.0
320,1690899088.0346558,530325,1690899088,34473419,livox_frame,0.0,0.0,0.0,0.0,0.0,0.0,0.0,0.0,0.0,0.0,0.0,0.0,0.0,0.0102587677538394,-0.0105559788644313,-0.009294182062149,0.0,0.0,0.0,0.0,0.0,0.0,0.0,0.0,0.0,-0.1047609224915504,0.0296849627047777,0.9807140827178956,0.0,0.0,0.0,0.0,0.0,0.0,0.0,0.0,0.0
321,1690899088.0405934,530326,1690899088,40354729,livox_frame,0.0,0.0,0.0,0.0,0.0,0.0,0.0,0.0,0.0,0.0,0.0,0.0,0.0,0.0113240331411361,-0.0116212433204054,-0.0071636512875556,0.0,0.0,0.0,0.0,0.0,0.0,0.0,0.0,0.0,-0.0859620943665504,0.0221166033297777,0.9865734577178956,0.0,0.0,0.0,0.0,0.0,0.0,0.0,0.0,0.0
322,1690899088.0449522,530327,1690899088,44664860,livox_frame,0.0,0.0,0.0,0.0,0.0,0.0,0.0,0.0,0.0,0.0,0.0,0.0,0.0,0.0113240331411361,-0.0041643921285867,-0.009294182062149,0.0,0.0,0.0,0.0,0.0,0.0,0.0,0.0,0.0,-0.0954835787415504,0.0216283220797777,0.9946300983428956,0.0,0.0,0.0,0.0,0.0,0.0,0.0,0.0,0.0
323,1690899088.050405,530328,1690899088,50184488,livox_frame,0.0,0.0,0.0,0.0,0.0,0.0,0.0,0.0,0.0,0.0,0.0,0.0,0.0,0.0081282369792461,-0.0009685987606644,-0.009294182062149,0.0,0.0,0.0,0.0,0.0,0.0,0.0,0.0,0.0,-0.1064699068665504,0.0318822301924228,1.0087902545928955,0.0,0.0,0.0,0.0,0.0,0.0,0.0,0.0,0.0
324,1690899088.0547645,530329,1690899088,54552555,livox_frame,0.0,0.0,0.0,0.0,0.0,0.0,0.0,0.0,0.0,0.0,0.0,0.0,0.0,0.0017366521060466,0.0022271946072578,-0.0071636512875556,0.0,0.0,0.0,0.0,0.0,0.0,0.0,0.0,0.0,-0.1174562349915504,0.0299291033297777,0.9921886920928956,0.0,0.0,0.0,0.0,0.0,0.0,0.0,0.0,0.0
325,1690899088.0606751,530330,1690899088,60293436,livox_frame,0.0,0.0,0.0,0.0,0.0,0.0,0.0,0.0,0.0,0.0,0.0,0.0,0.0,0.00067138671875,0.0075535178184509,-0.0050331279635429,0.0,0.0,0.0,0.0,0.0,0.0,0.0,0.0,0.0,-0.1233156099915504,0.0287084002047777,0.9711925983428956,0.0,0.0,0.0,0.0,0.0,0.0,0.0,0.0,0.0
326,1690899088.0648122,530331,1690899088,64591169,livox_frame,0.0,0.0,0.0,0.0,0.0,0.0,0.0,0.0,0.0,0.0,0.0,0.0,0.0,0.005997709929943,0.004357723519206,-0.0060983896255493,0.0,0.0,0.0,0.0,0.0,0.0,0.0,0.0,0.0,-0.1130617037415504,0.0333470739424228,0.9787609577178956,0.0,0.0,0.0,0.0,0.0,0.0,0.0,0.0,0.0
327,1690899088.0705638,530332,1690899088,70240498,livox_frame,0.0,0.0,0.0,0.0,0.0,0.0,0.0,0.0,0.0,0.0,0.0,0.0,0.0,0.0113240331411361,-0.0041643921285867,-0.0103594437241554,0.0,0.0,0.0,0.0,0.0,0.0,0.0,0.0,0.0,-0.0996339693665504,0.0262669939547777,0.9790050983428956,0.0,0.0,0.0,0.0,0.0,0.0,0.0,0.0,0.0
328,1690899088.0747778,530333,1690899088,74570656,livox_frame,0.0,0.0,0.0,0.0,0.0,0.0,0.0,0.0,0.0,0.0,0.0,0.0,0.0,0.0134545601904392,-0.007360185496509,-0.009294182062149,0.0,0.0,0.0,0.0,0.0,0.0,0.0,0.0,0.0,-0.0908449068665504,0.0204076189547777,0.9848644733428956,0.0,0.0,0.0,0.0,0.0,0.0,0.0,0.0,0.0
329,1690899088.080565,530334,1690899088,80243111,livox_frame,0.0,0.0,0.0,0.0,0.0,0.0,0.0,0.0,0.0,0.0,0.0,0.0,0.0,0.0102587677538394,-0.0094907144084572,-0.0082289204001426,0.0,0.0,0.0,0.0,0.0,0.0,0.0,0.0,0.0,-0.0998781099915504,0.0274876970797777,0.9997570514678956,0.0,0.0,0.0,0.0,0.0,0.0,0.0,0.0,0.0
330,1690899088.0847328,530335,1690899088,84551573,livox_frame,0.0,0.0,0.0,0.0,0.0,0.0,0.0,0.0,0.0,0.0,0.0,0.0,0.0,0.0049324445426464,-0.0126865077763795,-0.0060983896255493,0.0,0.0,0.0,0.0,0.0,0.0,0.0,0.0,0.0,-0.1140382662415504,0.0316380895674228,1.0073254108428955,0.0,0.0,0.0,0.0,0.0,0.0,0.0,0.0,0.0
331,1690899088.090565,530336,1690899088,90354919,livox_frame,0.0,0.0,0.0,0.0,0.0,0.0,0.0,0.0,0.0,0.0,0.0,0.0,0.0,0.0028019174933433,-0.0116212433204054,-0.0060983896255493,0.0,0.0,0.0,0.0,0.0,0.0,0.0,0.0,0.0,-0.1213624849915504,0.0282201189547777,0.9860851764678956,0.0,0.0,0.0,0.0,0.0,0.0,0.0,0.0,0.0
332,1690899088.0948603,530337,1690899088,94648600,livox_frame,0.0,0.0,0.0,0.0,0.0,0.0,0.0,0.0,0.0,0.0,0.0,0.0,0.0,0.0028019174933433,-0.0052296565845608,-0.0039678588509559,0.0,0.0,0.0,0.0,0.0,0.0,0.0,0.0,0.0,-0.1220949068665504,0.0328587926924228,0.9777843952178956,0.0,0.0,0.0,0.0,0.0,0.0,0.0,0.0,0.0
333,1690899088.1005824,530338,1690899088,100304842,livox_frame,0.0,0.0,0.0,0.0,0.0,0.0,0.0,0.0,0.0,0.0,0.0,0.0,0.0,0.0070629753172397,-0.0020338632166385,-0.0050331279635429,0.0,0.0,0.0,0.0,0.0,0.0,0.0,0.0,0.0,-0.1091554537415504,0.0331029333174228,0.9833996295928956,0.0,0.0,0.0,0.0,0.0,0.0,0.0,0.0,0.0
334,1690899088.104648,530339,1690899088,104454756,livox_frame,0.0,0.0,0.0,0.0,0.0,0.0,0.0,0.0,0.0,0.0,0.0,0.0,0.0,0.0145198255777359,0.0022271946072578,-0.009294182062149,0.0,0.0,0.0,0.0,0.0,0.0,0.0,0.0,0.0,-0.0945070162415504,0.0250462908297777,0.9768078327178956,0.0,0.0,0.0,0.0,0.0,0.0,0.0,0.0,0.0
335,1690899088.1106384,530340,1690899088,110274553,livox_frame,0.0,0.0,0.0,0.0,0.0,0.0,0.0,0.0,0.0,0.0,0.0,0.0,0.0,0.0123892948031425,0.004357723519206,-0.0071636512875556,0.0,0.0,0.0,0.0,0.0,0.0,0.0,0.0,0.0,-0.0898683443665504,0.0233373064547777,0.9855968952178956,0.0,0.0,0.0,0.0,0.0,0.0,0.0,0.0,0.0
336,1690899088.1147835,530341,1690899088,114579678,livox_frame,0.0,0.0,0.0,0.0,0.0,0.0,0.0,0.0,0.0,0.0,0.0,0.0,0.0,0.0113240331411361,0.0022271946072578,-0.0082289204001426,0.0,0.0,0.0,0.0,0.0,0.0,0.0,0.0,0.0,-0.0981691256165504,0.0304173845797777,1.0073254108428955,0.0,0.0,0.0,0.0,0.0,0.0,0.0,0.0,0.0
337,1690899088.1205542,530342,1690899088,120353222,livox_frame,0.0,0.0,0.0,0.0,0.0,0.0,0.0,0.0,0.0,0.0,0.0,0.0,0.0,0.0038671791553497,-0.0009685987606644,-0.0082289204001426,0.0,0.0,0.0,0.0,0.0,0.0,0.0,0.0,0.0,-0.1174562349915504,0.0291966814547777,0.9965832233428956,0.0,0.0,0.0,0.0,0.0,0.0,0.0,0.0,0.0
338,1690899088.1250389,530343,1690899088,124774694,livox_frame,0.0,0.0,0.0,0.0,0.0,0.0,0.0,0.0,0.0,0.0,0.0,0.0,0.0,-0.0025244057178497,-0.0052296565845608,-0.0050331279635429,0.0,0.0,0.0,0.0,0.0,0.0,0.0,0.0,0.0,-0.1238038912415504,0.0321263708174228,0.9846203327178956,0.0,0.0,0.0,0.0,0.0,0.0,0.0,0.0,0.0
339,1690899088.1303992,530344,1690899088,130220890,livox_frame,0.0,0.0,0.0,0.0,0.0,0.0,0.0,0.0,0.0,0.0,0.0,0.0,0.0,0.0038671791553497,-0.007360185496509,-0.0039678588509559,0.0,0.0,0.0,0.0,0.0,0.0,0.0,0.0,0.0,-0.125757023692131,0.0335912145674228,0.9753429889678956,0.0,0.0,0.0,0.0,0.0,0.0,0.0,0.0,0.0
340,1690899088.1347816,530345,1690899088,134593248,livox_frame,0.0,0.0,0.0,0.0,0.0,0.0,0.0,0.0,0.0,0.0,0.0,0.0,0.0,0.0091935023665428,-0.0126865077763795,-0.0060983896255493,0.0,0.0,0.0,0.0,0.0,0.0,0.0,0.0,0.0,-0.1096437349915504,0.0299291033297777,0.9787609577178956,0.0,0.0,0.0,0.0,0.0,0.0,0.0,0.0,0.0
341,1690899088.1404104,530346,1690899088,140220165,livox_frame,0.0,0.0,0.0,0.0,0.0,0.0,0.0,0.0,0.0,0.0,0.0,0.0,0.0,0.0113240331411361,-0.0126865077763795,-0.0124899744987487,0.0,0.0,0.0,0.0,0.0,0.0,0.0,0.0,0.0,-0.0913331881165504,0.0230931658297777,0.9790050983428956,0.0,0.0,0.0,0.0,0.0,0.0,0.0,0.0,0.0
342,1690899088.144834,530347,1690899088,144542217,livox_frame,0.0,0.0,0.0,0.0,0.0,0.0,0.0,0.0,0.0,0.0,0.0,0.0,0.0,0.0123892948031425,-0.0041643921285867,-0.0082289204001426,0.0,0.0,0.0,0.0,0.0,0.0,0.0,0.0,0.0,-0.0915773287415504,0.0257787127047777,0.9956066608428956,0.0,0.0,0.0,0.0,0.0,0.0,0.0,0.0,0.0
343,1690899088.150581,530348,1690899088,150354147,livox_frame,0.0,0.0,0.0,0.0,0.0,0.0,0.0,0.0,0.0,0.0,0.0,0.0,0.0,0.0102587677538394,-0.0020338632166385,-0.0071636512875556,0.0,0.0,0.0,0.0,0.0,0.0,0.0,0.0,0.0,-0.0981691256165504,0.0279759783297777,1.0061047077178955,0.0,0.0,0.0,0.0,0.0,0.0,0.0,0.0,0.0
344,1690899088.154803,530349,1690899088,154545307,livox_frame,0.0,0.0,0.0,0.0,0.0,0.0,0.0,0.0,0.0,0.0,0.0,0.0,0.0,0.0028019174933433,-0.0009685987606644,-0.0082289204001426,0.0,0.0,0.0,0.0,0.0,0.0,0.0,0.0,0.0,-0.1147706881165504,0.0272435564547777,0.9978039264678956,0.0,0.0,0.0,0.0,0.0,0.0,0.0,0.0,0.0
345,1690899088.160578,530350,1690899088,160281658,livox_frame,0.0,0.0,0.0,0.0,0.0,0.0,0.0,0.0,0.0,0.0,0.0,0.0,0.0,0.00067138671875,0.0075535178184509,-0.0060983896255493,0.0,0.0,0.0,0.0,0.0,0.0,0.0,0.0,0.0,-0.1211183443665504,0.0311498064547777,0.9812023639678956,0.0,0.0,0.0,0.0,0.0,0.0,0.0,0.0,0.0
346,1690899088.1647,530351,1690899088,164514780,livox_frame,0.0,0.0,0.0,0.0,0.0,0.0,0.0,0.0,0.0,0.0,0.0,0.0,0.0,0.0038671791553497,0.0054229889065027,-0.0060983896255493,0.0,0.0,0.0,0.0,0.0,0.0,0.0,0.0,0.0,-0.1194093599915504,0.0331029333174228,0.9758312702178956,0.0,0.0,0.0,0.0,0.0,0.0,0.0,0.0,0.0
347,1690899088.1705575,530352,1690899088,170355082,livox_frame,0.0,0.0,0.0,0.0,0.0,0.0,0.0,0.0,0.0,0.0,0.0,0.0,0.0,0.0102587677538394,-0.0041643921285867,-0.0103594437241554,0.0,0.0,0.0,0.0,0.0,0.0,0.0,0.0,0.0,-0.1045167818665504,0.0260228533297777,0.9729015827178956,0.0,0.0,0.0,0.0,0.0,0.0,0.0,0.0,0.0
348,1690899088.1748514,530353,1690899088,174627542,livox_frame,0.0,0.0,0.0,0.0,0.0,0.0,0.0,0.0,0.0,0.0,0.0,0.0,0.0,0.0102587677538394,-0.0052296565845608,-0.0114247128367424,0.0,0.0,0.0,0.0,0.0,0.0,0.0,0.0,0.0,-0.0925538912415504,0.0245580095797777,0.9821789264678956,0.0,0.0,0.0,0.0,0.0,0.0,0.0,0.0,0.0
349,1690899088.1806052,530354,1690899088,180280685,livox_frame,0.0,0.0,0.0,0.0,0.0,0.0,0.0,0.0,0.0,0.0,0.0,0.0,0.0,0.0123892948031425,-0.0094907144084572,-0.009294182062149,0.0,0.0,0.0,0.0,0.0,0.0,0.0,0.0,0.0,-0.0971925631165504,0.0252904314547777,0.9965832233428956,0.0,0.0,0.0,0.0,0.0,0.0,0.0,0.0,0.0
350,1690899088.1847298,530355,1690899088,184517622,livox_frame,0.0,0.0,0.0,0.0,0.0,0.0,0.0,0.0,0.0,0.0,0.0,0.0,0.0,0.0070629753172397,-0.0116212433204054,-0.0060983896255493,0.0,0.0,0.0,0.0,0.0,0.0,0.0,0.0,0.0,-0.1037843599915504,0.0255345720797777,1.0078136920928955,0.0,0.0,0.0,0.0,0.0,0.0,0.0,0.0,0.0
351,1690899088.1905658,530356,1690899088,190359116,livox_frame,0.0,0.0,0.0,0.0,0.0,0.0,0.0,0.0,0.0,0.0,0.0,0.0,0.0,0.0028019174933433,-0.0105559788644313,-0.0082289204001426,0.0,0.0,0.0,0.0,0.0,0.0,0.0,0.0,0.0,-0.1196535006165504,0.0287084002047777,0.9924328327178956,0.0,0.0,0.0,0.0,0.0,0.0,0.0,0.0,0.0
352,1690899088.195035,530357,1690899088,194720507,livox_frame,0.0,0.0,0.0,0.0,0.0,0.0,0.0,0.0,0.0,0.0,0.0,0.0,0.0,0.0028019174933433,-0.0041643921285867,-0.0060983896255493,0.0,0.0,0.0,0.0,0.0,0.0,0.0,0.0,0.0,-0.1240480318665504,0.0338353551924228,0.9838879108428956,0.0,0.0,0.0,0.0,0.0,0.0,0.0,0.0,0.0
353,1690899088.2005556,530358,1690899088,200271368,livox_frame,0.0,0.0,0.0,0.0,0.0,0.0,0.0,0.0,0.0,0.0,0.0,0.0,0.0,0.005997709929943,-0.0009685987606644,-0.0060983896255493,0.0,0.0,0.0,0.0,0.0,0.0,0.0,0.0,0.0,-0.1137941256165504,0.0301732439547777,0.9816906452178956,0.0,0.0,0.0,0.0,0.0,0.0,0.0,0.0,0.0
354,1690899088.2047286,530359,1690899088,204548597,livox_frame,0.0,0.0,0.0,0.0,0.0,0.0,0.0,0.0,0.0,0.0,0.0,0.0,0.0,0.0102587677538394,0.0022271946072578,-0.009294182062149,0.0,0.0,0.0,0.0,0.0,0.0,0.0,0.0,0.0,-0.1010988131165504,0.0248021502047777,0.9724133014678956,0.0,0.0,0.0,0.0,0.0,0.0,0.0,0.0,0.0
355,1690899088.2105703,530360,1690899088,210300922,livox_frame,0.0,0.0,0.0,0.0,0.0,0.0,0.0,0.0,0.0,0.0,0.0,0.0,0.0,0.0123892948031425,0.004357723519206,-0.0082289204001426,0.0,0.0,0.0,0.0,0.0,0.0,0.0,0.0,0.0,-0.0927980318665504,0.0267552752047777,0.9829113483428956,0.0,0.0,0.0,0.0,0.0,0.0,0.0,0.0,0.0
356,1690899088.2147353,530361,1690899088,214493990,livox_frame,0.0,0.0,0.0,0.0,0.0,0.0,0.0,0.0,0.0,0.0,0.0,0.0,0.0,0.0123892948031425,0.004357723519206,-0.0071636512875556,0.0,0.0,0.0,0.0,0.0,0.0,0.0,0.0,0.0,-0.0927980318665504,0.0255345720797777,0.9995129108428956,0.0,0.0,0.0,0.0,0.0,0.0,0.0,0.0,0.0
357,1690899088.2206087,530362,1690899088,220358610,livox_frame,0.0,0.0,0.0,0.0,0.0,0.0,0.0,0.0,0.0,0.0,0.0,0.0,0.0,0.0070629753172397,-0.0030991276726126,-0.009294182062149,0.0,0.0,0.0,0.0,0.0,0.0,0.0,0.0,0.0,-0.1106202974915504,0.0260228533297777,1.0014660358428955,0.0,0.0,0.0,0.0,0.0,0.0,0.0,0.0,0.0
358,1690899088.2250726,530363,1690899088,224859238,livox_frame,0.0,0.0,0.0,0.0,0.0,0.0,0.0,0.0,0.0,0.0,0.0,0.0,0.0,0.0038671791553497,-0.0084254499524831,-0.0071636512875556,0.0,0.0,0.0,0.0,0.0,0.0,0.0,0.0,0.0,-0.1198976412415504,0.0335912145674228,0.9912121295928956,0.0,0.0,0.0,0.0,0.0,0.0,0.0,0.0,0.0
359,1690899088.2305362,530364,1690899088,230355024,livox_frame,0.0,0.0,0.0,0.0,0.0,0.0,0.0,0.0,0.0,0.0,0.0,0.0,0.0,0.0017366521060466,-0.0094907144084572,-0.0050331279635429,0.0,0.0,0.0,0.0,0.0,0.0,0.0,0.0,0.0,-0.127954289317131,0.0335912145674228,0.9763195514678956,0.0,0.0,0.0,0.0,0.0,0.0,0.0,0.0,0.0
360,1690899088.2349226,530365,1690899088,234747410,livox_frame,0.0,0.0,0.0,0.0,0.0,0.0,0.0,0.0,0.0,0.0,0.0,0.0,0.0,0.0049324445426464,-0.0126865077763795,-0.0060983896255493,0.0,0.0,0.0,0.0,0.0,0.0,0.0,0.0,0.0,-0.1157472506165504,0.0269994158297777,0.9797375202178956,0.0,0.0,0.0,0.0,0.0,0.0,0.0,0.0,0.0
361,1690899088.2403202,530366,1690899088,240147829,livox_frame,0.0,0.0,0.0,0.0,0.0,0.0,0.0,0.0,0.0,0.0,0.0,0.0,0.0,0.0091935023665428,-0.0126865077763795,-0.0114247128367424,0.0,0.0,0.0,0.0,0.0,0.0,0.0,0.0,0.0,-0.1001222506165504,0.0269994158297777,0.9758312702178956,0.0,0.0,0.0,0.0,0.0,0.0,0.0,0.0,0.0
362,1690899088.2448316,530367,1690899088,244581223,livox_frame,0.0,0.0,0.0,0.0,0.0,0.0,0.0,0.0,0.0,0.0,0.0,0.0,0.0,0.0102587677538394,-0.0062949210405349,-0.0071636512875556,0.0,0.0,0.0,0.0,0.0,0.0,0.0,0.0,0.0,-0.0901124849915504,0.0272435564547777,0.9904797077178956,0.0,0.0,0.0,0.0,0.0,0.0,0.0,0.0,0.0
363,1690899088.2504628,530368,1690899088,250194550,livox_frame,0.0,0.0,0.0,0.0,0.0,0.0,0.0,0.0,0.0,0.0,0.0,0.0,0.0,0.0113240331411361,-0.0009685987606644,-0.0082289204001426,0.0,0.0,0.0,0.0,0.0,0.0,0.0,0.0,0.0,-0.0927980318665504,0.0228490252047777,1.0029308795928955,0.0,0.0,0.0,0.0,0.0,0.0,0.0,0.0,0.0
364,1690899088.254835,530369,1690899088,254617691,livox_frame,0.0,0.0,0.0,0.0,0.0,0.0,0.0,0.0,0.0,0.0,0.0,0.0,0.0,0.005997709929943,9.666569530963898e-05,-0.009294182062149,0.0,0.0,0.0,0.0,0.0,0.0,0.0,0.0,0.0,-0.1089113131165504,0.0306615252047777,1.0031750202178955,0.0,0.0,0.0,0.0,0.0,0.0,0.0,0.0,0.0
365,1690899088.260435,530370,1690899088,260215521,livox_frame,0.0,0.0,0.0,0.0,0.0,0.0,0.0,0.0,0.0,0.0,0.0,0.0,0.0,-0.0003938786685466,0.004357723519206,-0.0060983896255493,0.0,0.0,0.0,0.0,0.0,0.0,0.0,0.0,0.0,-0.1189210787415504,0.0331029333174228,0.9880383014678956,0.0,0.0,0.0,0.0,0.0,0.0,0.0,0.0,0.0
366,1690899088.2646856,530371,1690899088,264500141,livox_frame,0.0,0.0,0.0,0.0,0.0,0.0,0.0,0.0,0.0,0.0,0.0,0.0,0.0,0.0049324445426464,0.0054229889065027,-0.0050331279635429,0.0,0.0,0.0,0.0,0.0,0.0,0.0,0.0,0.0,-0.1235597506165504,0.0316380895674228,0.9748547077178956,0.0,0.0,0.0,0.0,0.0,0.0,0.0,0.0,0.0
367,1690899088.2705958,530372,1690899088,270318270,livox_frame,0.0,0.0,0.0,0.0,0.0,0.0,0.0,0.0,0.0,0.0,0.0,0.0,0.0,0.0081282369792461,-0.0009685987606644,-0.009294182062149,0.0,0.0,0.0,0.0,0.0,0.0,0.0,0.0,0.0,-0.1115968599915504,0.0309056658297777,0.9746105670928956,0.0,0.0,0.0,0.0,0.0,0.0,0.0,0.0,0.0
368,1690899088.2747958,530373,1690899088,274555445,livox_frame,0.0,0.0,0.0,0.0,0.0,0.0,0.0,0.0,0.0,0.0,0.0,0.0,0.0,0.0134545601904392,-0.007360185496509,-0.0103594437241554,0.0,0.0,0.0,0.0,0.0,0.0,0.0,0.0,0.0,-0.0952394381165504,0.0279759783297777,0.9780285358428956,0.0,0.0,0.0,0.0,0.0,0.0,0.0,0.0,0.0
369,1690899088.2806585,530374,1690899088,280265331,livox_frame,0.0,0.0,0.0,0.0,0.0,0.0,0.0,0.0,0.0,0.0,0.0,0.0,0.0,0.0134545601904392,-0.0084254499524831,-0.009294182062149,0.0,0.0,0.0,0.0,0.0,0.0,0.0,0.0,0.0,-0.0930421724915504,0.0233373064547777,0.9890148639678956,0.0,0.0,0.0,0.0,0.0,0.0,0.0,0.0,0.0
370,1690899088.284758,530375,1690899088,284513235,livox_frame,0.0,0.0,0.0,0.0,0.0,0.0,0.0,0.0,0.0,0.0,0.0,0.0,0.0,0.0081282369792461,-0.0126865077763795,-0.0082289204001426,0.0,0.0,0.0,0.0,0.0,0.0,0.0,0.0,0.0,-0.0981691256165504,0.0252904314547777,1.0073254108428955,0.0,0.0,0.0,0.0,0.0,0.0,0.0,0.0,0.0
371,1690899088.2906444,530376,1690899088,290254116,livox_frame,0.0,0.0,0.0,0.0,0.0,0.0,0.0,0.0,0.0,0.0,0.0,0.0,0.0,0.0028019174933433,-0.0126865077763795,-0.009294182062149,0.0,0.0,0.0,0.0,0.0,0.0,0.0,0.0,0.0,-0.1135499849915504,0.0323705114424228,1.0014660358428955,0.0,0.0,0.0,0.0,0.0,0.0,0.0,0.0,0.0
372,1690899088.294827,530377,1690899088,294601440,livox_frame,0.0,0.0,0.0,0.0,0.0,0.0,0.0,0.0,0.0,0.0,0.0,0.0,0.0,0.0017366521060466,-0.0041643921285867,-0.0039678588509559,0.0,0.0,0.0,0.0,0.0,0.0,0.0,0.0,0.0,-0.1223390474915504,0.0306615252047777,0.9841320514678956,0.0,0.0,0.0,0.0,0.0,0.0,0.0,0.0,0.0
373,1690899088.3005662,530378,1690899088,300355911,livox_frame,0.0,0.0,0.0,0.0,0.0,0.0,0.0,0.0,0.0,0.0,0.0,0.0,0.0,0.0038671791553497,-0.0030991276726126,-0.0082289204001426,0.0,0.0,0.0,0.0,0.0,0.0,0.0,0.0,0.0,-0.1198976412415504,0.0306615252047777,0.9831554889678956,0.0,0.0,0.0,0.0,0.0,0.0,0.0,0.0,0.0
374,1690899088.3048987,530379,1690899088,304674149,livox_frame,0.0,0.0,0.0,0.0,0.0,0.0,0.0,0.0,0.0,0.0,0.0,0.0,0.0,0.0070629753172397,9.666569530963898e-05,-0.0071636512875556,0.0,0.0,0.0,0.0,0.0,0.0,0.0,0.0,0.0,-0.1084230318665504,0.0287084002047777,0.9743664264678956,0.0,0.0,0.0,0.0,0.0,0.0,0.0,0.0,0.0
375,1690899088.3105686,530380,1690899088,310357809,livox_frame,0.0,0.0,0.0,0.0,0.0,0.0,0.0,0.0,0.0,0.0,0.0,0.0,0.0,0.0113240331411361,0.0054229889065027,-0.0071636512875556,0.0,0.0,0.0,0.0,0.0,0.0,0.0,0.0,0.0,-0.0930421724915504,0.0267552752047777,0.9777843952178956,0.0,0.0,0.0,0.0,0.0,0.0,0.0,0.0,0.0
376,1690899088.3147922,530381,1690899088,314565182,livox_frame,0.0,0.0,0.0,0.0,0.0,0.0,0.0,0.0,0.0,0.0,0.0,0.0,0.0,0.0145198255777359,0.0032924599945545,-0.0082289204001426,0.0,0.0,0.0,0.0,0.0,0.0,0.0,0.0,0.0,-0.0898683443665504,0.0208959002047777,0.9899914264678956,0.0,0.0,0.0,0.0,0.0,0.0,0.0,0.0,0.0
377,1690899088.3205757,530382,1690899088,320355892,livox_frame,0.0,0.0,0.0,0.0,0.0,0.0,0.0,0.0,0.0,0.0,0.0,0.0,0.0,0.0091935023665428,-0.0020338632166385,-0.009294182062149,0.0,0.0,0.0,0.0,0.0,0.0,0.0,0.0,0.0,-0.1023195162415504,0.0294408220797777,1.0043957233428955,0.0,0.0,0.0,0.0,0.0,0.0,0.0,0.0,0.0
378,1690899088.3247762,530383,1690899088,324593067,livox_frame,0.0,0.0,0.0,0.0,0.0,0.0,0.0,0.0,0.0,0.0,0.0,0.0,0.0,0.0049324445426464,-0.007360185496509,-0.0071636512875556,0.0,0.0,0.0,0.0,0.0,0.0,0.0,0.0,0.0,-0.1164796724915504,0.0311498064547777,0.9965832233428956,0.0,0.0,0.0,0.0,0.0,0.0,0.0,0.0,0.0
379,1690899088.3305354,530384,1690899088,330355644,livox_frame,0.0,0.0,0.0,0.0,0.0,0.0,0.0,0.0,0.0,0.0,0.0,0.0,0.0,-0.0003938786685466,-0.0084254499524831,-0.0029025971889495,0.0,0.0,0.0,0.0,0.0,0.0,0.0,0.0,0.0,-0.1235597506165504,0.0291966814547777,0.9821789264678956,0.0,0.0,0.0,0.0,0.0,0.0,0.0,0.0,0.0
380,1690899088.3348677,530385,1690899088,334696531,livox_frame,0.0,0.0,0.0,0.0,0.0,0.0,0.0,0.0,0.0,0.0,0.0,0.0,0.0,0.0017366521060466,-0.0116212433204054,-0.0060983896255493,0.0,0.0,0.0,0.0,0.0,0.0,0.0,0.0,0.0,-0.1220949068665504,0.0323705114424228,0.9819347858428956,0.0,0.0,0.0,0.0,0.0,0.0,0.0,0.0,0.0
381,1690899088.3406043,530386,1690899088,340294838,livox_frame,0.0,0.0,0.0,0.0,0.0,0.0,0.0,0.0,0.0,0.0,0.0,0.0,0.0,0.0102587677538394,-0.0116212433204054,-0.0103594437241554,0.0,0.0,0.0,0.0,0.0,0.0,0.0,0.0,0.0,-0.1076906099915504,0.0301732439547777,0.9768078327178956,0.0,0.0,0.0,0.0,0.0,0.0,0.0,0.0,0.0
382,1690899088.3447654,530387,1690899088,344455242,livox_frame,0.0,0.0,0.0,0.0,0.0,0.0,0.0,0.0,0.0,0.0,0.0,0.0,0.0,0.0113240331411361,-0.0062949210405349,-0.0071636512875556,0.0,0.0,0.0,0.0,0.0,0.0,0.0,0.0,0.0,-0.0891359224915504,0.0221166033297777,0.9809582233428956,0.0,0.0,0.0,0.0,0.0,0.0,0.0,0.0,0.0
383,1690899088.3507102,530388,1690899088,350284100,livox_frame,0.0,0.0,0.0,0.0,0.0,0.0,0.0,0.0,0.0,0.0,0.0,0.0,0.0,0.0102587677538394,-0.0009685987606644,-0.0082289204001426,0.0,0.0,0.0,0.0,0.0,0.0,0.0,0.0,0.0,-0.0918214693665504,0.0243138689547777,1.0019543170928955,0.0,0.0,0.0,0.0,0.0,0.0,0.0,0.0,0.0
384,1690899088.3547933,530389,1690899088,354559183,livox_frame,0.0,0.0,0.0,0.0,0.0,0.0,0.0,0.0,0.0,0.0,0.0,0.0,0.0,0.0070629753172397,9.666569530963898e-05,-0.0082289204001426,0.0,0.0,0.0,0.0,0.0,0.0,0.0,0.0,0.0,-0.1028077974915504,0.0304173845797777,0.9995129108428956,0.0,0.0,0.0,0.0,0.0,0.0,0.0,0.0,0.0
385,1690899088.3607018,530390,1690899088,360248566,livox_frame,0.0,0.0,0.0,0.0,0.0,0.0,0.0,0.0,0.0,0.0,0.0,0.0,0.0,0.0017366521060466,0.004357723519206,-0.0050331279635429,0.0,0.0,0.0,0.0,0.0,0.0,0.0,0.0,0.0,-0.1147706881165504,0.0299291033297777,0.9946300983428956,0.0,0.0,0.0,0.0,0.0,0.0,0.0,0.0,0.0
386,1690899088.364733,530391,1690899088,364547491,livox_frame,0.0,0.0,0.0,0.0,0.0,0.0,0.0,0.0,0.0,0.0,0.0,0.0,0.0,0.0017366521060466,0.0075535178184509,-0.0050331279635429,0.0,0.0,0.0,0.0,0.0,0.0,0.0,0.0,0.0,-0.1218507662415504,0.0296849627047777,0.9799816608428956,0.0,0.0,0.0,0.0,0.0,0.0,0.0,0.0,0.0
387,1690899088.3703778,530392,1690899088,370210648,livox_frame,0.0,0.0,0.0,0.0,0.0,0.0,0.0,0.0,0.0,0.0,0.0,0.0,0.0,0.005997709929943,0.0011619310826063,-0.0060983896255493,0.0,0.0,0.0,0.0,0.0,0.0,0.0,0.0,0.0,-0.1203859224915504,0.0357884801924228,0.9763195514678956,0.0,0.0,0.0,0.0,0.0,0.0,0.0,0.0,0.0
388,1690899088.374833,530393,1690899088,374627829,livox_frame,0.0,0.0,0.0,0.0,0.0,0.0,0.0,0.0,0.0,0.0,0.0,0.0,0.0,0.0113240331411361,-0.0062949210405349,-0.009294182062149,0.0,0.0,0.0,0.0,0.0,0.0,0.0,0.0,0.0,-0.1015870943665504,0.0284642595797777,0.9729015827178956,0.0,0.0,0.0,0.0,0.0,0.0,0.0,0.0,0.0
389,1690899088.3805509,530394,1690899088,380359173,livox_frame,0.0,0.0,0.0,0.0,0.0,0.0,0.0,0.0,0.0,0.0,0.0,0.0,0.0,0.0123892948031425,-0.007360185496509,-0.0082289204001426,0.0,0.0,0.0,0.0,0.0,0.0,0.0,0.0,0.0,-0.0930421724915504,0.0204076189547777,0.9829113483428956,0.0,0.0,0.0,0.0,0.0,0.0,0.0,0.0,0.0
390,1690899088.384872,530395,1690899088,384611368,livox_frame,0.0,0.0,0.0,0.0,0.0,0.0,0.0,0.0,0.0,0.0,0.0,0.0,0.0,0.0134545601904392,-0.0126865077763795,-0.009294182062149,0.0,0.0,0.0,0.0,0.0,0.0,0.0,0.0,0.0,-0.0942628756165504,0.0272435564547777,1.0068371295928955,0.0,0.0,0.0,0.0,0.0,0.0,0.0,0.0,0.0
